accx,accy,accz,label
0.4545,-0.0031,-0.2535,6
0.4481,0.055,-0.3009,6
0.4328,0.0701,-0.2722,6
0.4493,-0.0122,-0.2926,6
0.3525,-0.223,-0.209,6
0.3805,-0.2965,-0.187,6
0.52,0.0366,-0.4185,6
0.6794,0.3942,-0.3781,6
0.4309,-0.0466,-0.1598,6
0.4309,-0.0466,-0.1598,6
0.3418,-0.0539,-0.2527,6
0.4091,0.1493,-0.3606,6
0.5385,-0.008,-0.3053,6
0.5083,0.103,-0.3186,6
0.3645,0.1521,-0.4229,6
0.5062,-0.0129,-0.1157,6
0.4308,-0.0193,-0.2316,6
0.2421,-0.1161,-0.6231,6
-0.0298,-0.224,-0.5103,6
-0.1015,-0.4958,-0.3972,6
0.0411,-0.1553,0.3702,6
0.3667,-0.1702,1.3926,6
0.3667,-0.1702,1.3926,6
0.789,-0.2467,1.3726,6
0.8865,-0.0808,-0.7952,6
0.6456,0.2389,-1.1289,6
-0.6363,0.1136,0.2179,6
-0.8628,-0.7086,0.2831,6
0.4001,-1.2229,0.3418,6
1.4457,-1.1498,0.2583,6
2.5721,-0.1478,0.038,6
2.1719,0.4412,0.2623,6
3.1002,0.5201,0.6286,6
3.1002,0.5201,0.6286,6
2.7546,0.3932,-0.6692,6
2.4814,0.3052,-1.2704,6
1.5441,0.5468,-0.6736,6
-0.1562,0.4701,0.0475,6
-0.4393,0.1282,-0.1378,6
0.1972,0.5816,-1.8605,6
0.7006,0.9454,-1.9857,6
0.8974,0.5881,-1.5931,6
1.0895,-0.5272,-1.5173,6
1.0895,-0.5272,-1.5173,6
1.7756,0.2721,-1.2516,6
0.9081,1.6059,-0.5801,6
-3.7113,-0.2046,-0.8044,6
-3.7113,-0.2046,-0.8044,6
-4.1463,-1.1656,-1.8477,6
-3.2273,-0.3501,-3.1006,6
-2.5513,0.3579,-1.9692,6
-1.6323,-0.1575,-0.0716,6
0.9892,-1.7243,0.3416,6
1.4019,-0.8546,0.5139,6
0.0204,1.273,0.2004,6
-0.5525,-0.1273,1.8158,6
0.6617,-2.4518,1.2698,6
1.5262,-1.2426,-0.3124,6
1.5262,-1.2426,-0.3124,6
1.0354,-0.371,-0.1908,6
0.4647,0.24,0.2046,6
0.297,0.055,0.6451,6
0.6391,0.3183,0.2605,6
2.0141,0.7447,-1.1748,6
3.7501,1.2417,-1.8237,6
4.5797,1.2015,-1.1227,6
3.5281,-0.1791,-0.8451,6
4.8688,0.3804,-1.135,6
4.8688,0.3804,-1.135,6
4.9379,0.7565,-1.8437,6
3.0519,1.1952,-1.9449,6
-0.8295,0.2523,-0.2172,6
-0.8295,0.2523,-0.2172,6
-2.0821,-1.059,-0.4993,6
-3.0582,-1.4955,-1.3851,6
-2.8724,-1.1739,-1.4788,6
-2.0855,0.8333,-0.3469,6
-2.0262,-0.9659,-0.4698,6
-1.6276,-1.6942,-0.7239,6
-0.5307,-0.8514,-1.3134,6
-0.414,0.6677,-1.1093,6
-0.3566,0.8986,-0.4182,6
-0.0942,0.3527,-0.0019,6
0.0671,0.2358,0.2151,6
0.4363,-0.2277,0.499,6
0.2624,-0.3995,0.6261,6
0.6397,0.2854,0.1389,6
1.127,0.663,-0.0386,6
1.1076,0.5464,0.0655,6
1.1323,-0.1253,0.4259,6
1.3752,-0.4426,0.5625,6
1.2081,-0.2399,0.4123,6
1.368,0.4215,0.1291,6
1.368,0.4215,0.1291,6
1.6662,0.1322,0.2275,6
2.0594,-0.2108,0.536,6
1.8532,-0.1921,0.5063,6
0.8695,0.224,0.0061,6
1.0351,0.0444,-0.1321,6
1.2343,0.0332,-0.1847,6
1.1068,0.8494,-0.795,6
1.0588,1.0071,-1.0065,6
0.8643,0.1447,-0.8933,6
0.3816,-0.3588,-0.7095,6
-0.509,-0.8886,-0.2532,6
-1.0759,-0.434,0.1873,6
-0.6979,0.1521,-0.0605,6
-0.4213,-0.5677,-1.047,6
-0.3153,-0.7634,-0.8296,6
-0.2124,-0.6551,-0.423,6
0.2664,0.5938,0.7996,6
0.1766,-0.3085,-0.2337,6
0.5399,-0.3087,-0.2401,6
0.3746,-0.1051,-0.165,6
0.118,0.0929,-0.3815,6
0.5081,0.215,-0.4059,6
0.7031,0.0345,-0.1962,6
0.7077,0.0469,-0.2135,6
0.5541,0.1579,-0.3222,6
0.6266,0.3954,-0.2976,6
0.8986,-0.03,0.1263,6
0.8986,-0.03,0.1263,6
0.6634,-0.093,0.1758,6
0.5779,-0.0736,0.0221,6
0.6451,-0.0292,-0.1539,6
0.5135,0.1249,-0.0406,6
1.0125,0.1711,-0.3699,6
0.521,-0.0942,-0.2867,6
0.2985,0.1245,-0.2302,6
0.6301,-0.1061,-0.2956,6
0.0794,-0.0191,-0.3266,6
0.2804,0.1489,-0.4156,6
0.2804,0.1489,-0.4156,6
0.2223,0.0642,-0.3538,6
0.4818,0.1475,-0.3107,6
0.5828,0.2689,-0.2357,6
0.3368,0.1776,-0.2528,6
0.4978,0.1797,-0.2733,6
0.5373,0.0652,-0.2471,6
0.4103,-0.0056,-0.1877,6
0.2313,-0.141,-0.1265,6
0.4356,-0.5017,0.0011,6
0.4356,-0.5017,0.0011,6
0.6596,-0.5596,-0.2588,6
0.7552,-0.4593,-0.6776,6
0.602,0.1636,-0.6716,6
0.8919,0.003,0.7147,6
1.208,-0.4769,1.8889,6
0.956,-0.498,3.1004,6
1.0855,0.5363,1.4622,6
1.264,1.3983,-2.6834,6
0.1225,0.0188,-0.4572,6
-0.3556,-0.6507,0.169,6
0.7355,-0.3578,-0.1924,6
1.202,0.2881,-1.3806,6
1.1063,0.1385,0.0173,6
2.1573,0.0313,-0.2139,6
2.1573,0.0313,-0.2139,6
1.8499,-0.1581,-1.451,6
1.5741,0.0642,-0.7759,6
2.071,0.1004,0.0516,6
2.2685,0.8038,-1.0762,6
1.5591,1.4172,-1.0677,6
-0.4622,1.284,-0.3424,6
-1.8385,0.381,-0.1342,6
-2.3031,-0.3,-0.6543,6
-2.5184,-0.5211,-1.6846,6
-2.5184,-0.5211,-1.6846,6
-1.9708,-0.5645,-1.623,6
-1.7822,-0.6533,-1.2097,6
-0.9653,-0.3507,-0.541,6
0.3174,-0.2445,-0.3848,6
0.6292,-0.2696,-0.4519,6
1.1778,-0.0728,-0.3644,6
1.2513,0.1855,-0.2114,6
0.9105,0.1938,-0.1069,6
0.9123,0.0364,0.3447,6
1.0803,0.0509,0.5451,6
1.2249,0.1665,0.5515,6
1.2062,0.378,0.2785,6
1.1499,0.4987,-0.134,6
1.3248,0.0937,-0.165,6
1.3248,0.0937,-0.165,6
1.1663,0.0135,-0.0987,6
0.9179,0.1746,-0.1243,6
0.5862,0.0924,-0.2228,6
0.3817,-0.1369,-0.2114,6
0.2831,-0.1892,-0.2495,6
0.2577,0.0237,-0.311,6
0.2345,0.0816,-0.307,6
0.2949,-0.0119,-0.3705,6
0.2968,0.0453,-0.374,6
0.085,0.0466,-0.3378,6
0.5867,0.1972,-0.3741,6
0.5867,0.1972,-0.3741,6
0.4788,0.1374,-0.303,6
0.4781,0.1357,-0.2253,6
0.4839,0.1213,-0.1965,6
0.5246,0.0144,-0.1529,6
0.5918,0.102,-0.1903,6
0.6142,0.0583,-0.1235,6
0.6211,0.0445,-0.2094,6
0.6266,0.0419,-0.2163,6
0.5951,0.0614,-0.2127,6
0.554,0.0511,-0.2112,6
0.5412,0.1335,-0.2247,6
0.5412,0.1335,-0.2247,6
0.529,0.0997,-0.2232,6
0.5991,0.1047,-0.2424,6
0.5649,0.0802,-0.1827,6
0.6842,0.1212,-0.1755,6
0.6046,0.0915,-0.2216,6
0.6033,0.0832,-0.2125,6
0.5491,0.0578,-0.2092,6
0.4914,0.0383,-0.2351,6
0.4335,0.0351,-0.2767,6
0.4335,0.0351,-0.2767,6
0.4309,0.1079,-0.3126,6
0.4605,0.0557,-0.2877,6
0.4374,0.0064,-0.2773,6
0.4141,0.0301,-0.2511,6
0.378,0.0635,-0.2992,6
0.4391,0.1416,-0.2796,6
0.4897,0.1451,-0.297,6
0.5383,0.1184,-0.2875,6
0.6077,0.0566,-0.232,6
0.6,0.0433,-0.2199,6
0.5728,0.101,-0.2067,6
0.5366,0.0965,-0.2612,6
0.4937,-0.0068,-0.1968,6
0.5049,-0.0145,-0.2361,6
0.5049,-0.0145,-0.2361,6
0.4994,0.0427,-0.2817,6
0.5268,0.1311,-0.3331,6
0.506,0.184,-0.306,6
0.4649,0.0965,-0.2531,6
0.4833,0.1165,-0.2416,6
0.5234,0.0546,-0.2742,6
0.5445,0.0249,-0.2647,6
0.5101,0.0417,-0.2581,6
0.5166,0.0609,-0.2771,6
0.5093,0.0225,-0.2345,6
0.507,0.0678,-0.2826,6
0.5017,0.1151,-0.256,6
0.5515,0.0781,-0.2802,6
0.6001,0.0106,-0.2277,6
0.5721,0.0483,-0.2439,6
0.4995,0.1234,-0.2399,6
0.4868,0.0846,-0.2814,6
0.5076,0.1616,-0.2848,6
0.5074,0.1459,-0.2682,6
0.5074,0.1459,-0.2682,6
0.5249,0.0908,-0.2776,6
0.5387,0.035,-0.2535,6
0.4317,0.0415,-0.2669,6
0.4317,0.0415,-0.2669,6
0.4419,0.0036,-0.3183,6
0.4523,0.0525,-0.2836,6
0.4397,0.0633,-0.2705,6
0.5003,0.0579,-0.2862,6
0.5243,0.1003,-0.2587,6
0.5085,0.0869,-0.2838,6
0.5485,0.1197,-0.3139,6
0.4694,0.0788,-0.2154,6
0.4542,0.0889,-0.2576,6
0.5404,0.0888,-0.2694,6
0.5404,0.0888,-0.2694,6
0.5666,0.0788,-0.2763,6
0.514,0.1058,-0.2358,6
0.4711,0.0744,-0.2577,6
0.5028,0.0383,-0.2876,6
0.4794,0.0446,-0.2678,6
0.4509,0.0878,-0.2812,6
0.4791,0.0611,-0.2548,6
0.5129,0.0322,-0.2168,6
0.5058,0.0495,-0.2764,6
0.5058,0.0495,-0.2764,6
0.5641,0.0757,-0.3109,6
0.4966,0.1684,-0.3187,6
0.4704,0.0428,-0.2729,6
0.4606,0.074,-0.2638,6
0.4778,0.0702,-0.2845,6
0.5312,0.0649,-0.2552,6
0.531,0.0234,-0.2792,6
0.5268,0.039,-0.2972,6
0.481,0.1419,-0.2695,6
0.5166,0.1521,-0.2801,6
0.4842,0.036,-0.2696,6
0.4897,0.0163,-0.233,6
0.4348,0.0259,-0.2538,6
0.4433,0.1424,-0.2714,6
0.4433,0.1424,-0.2714,6
0.4681,0.134,-0.2805,6
0.5446,0.1403,-0.2822,6
0.5604,0.048,-0.2864,6
0.5151,0.0402,-0.2387,6
0.5069,0.032,-0.2509,6
0.4363,0.0455,-0.2923,6
0.4655,0.0483,-0.2992,6
0.4562,0.0822,-0.2445,6
0.5268,0.032,-0.2668,6
0.5506,0.0371,-0.264,6
0.5362,0.0794,-0.2845,6
0.4909,0.1772,-0.3233,6
0.4847,0.1631,-0.2668,6
0.4681,0.0461,-0.2781,6
0.4726,0.0832,-0.2567,6
0.5223,0.1049,-0.2549,6
0.4992,0.0698,-0.2961,6
0.5293,0.04,-0.2848,6
0.5308,0.0546,-0.2904,6
0.51,0.0683,-0.3183,6
0.4492,0.0786,-0.2381,6
0.4395,0.0738,-0.2877,6
0.4571,0.0766,-0.2851,6
0.5436,0.1137,-0.2676,6
0.5606,0.1034,-0.3016,6
0.5604,0.0752,-0.2849,6
0.5191,0.0818,-0.2923,6
0.492,0.0555,-0.2333,6
0.4676,0.0593,-0.2627,6
0.4764,0.0857,-0.2889,6
0.4764,0.0857,-0.2889,6
0.5091,0.0847,-0.2264,6
0.5021,0.0909,-0.2815,6
0.5113,0.0909,-0.2854,6
0.5184,0.0841,-0.2973,6
0.476,0.1017,-0.3355,6
0.4435,0.1074,-0.2718,6
0.4435,0.1074,-0.2718,6
0.4554,0.097,-0.2959,6
0.4757,0.0727,-0.2897,6
0.4912,0.1108,-0.3035,6
0.4476,0.038,-0.2462,6
0.484,0.0213,-0.2249,6
0.4888,0.0273,-0.2409,6
0.5365,0.0802,-0.2653,6
0.5659,0.0356,-0.2559,6
0.4974,0.1339,-0.2812,6
0.4235,0.0795,-0.2899,6
0.4338,0.0888,-0.3055,6
0.4295,0.0774,-0.2647,6
0.495,0.0993,-0.3072,6
0.5029,0.1172,-0.2963,6
0.4294,-0.0352,-0.2433,6
0.4439,-0.0527,-0.2465,6
0.5002,0.0138,-0.2862,6
0.5466,0.0944,-0.3291,6
0.5167,0.1084,-0.2656,6
0.417,0.1265,-0.2439,6
0.4146,0.1214,-0.2205,6
0.44,0.1323,-0.2471,6
0.4674,0.1218,-0.305,6
0.5528,0.0812,-0.3027,6
0.5381,0.0427,-0.2524,6
0.4958,0.0829,-0.2048,6
0.5185,0.0923,-0.2472,6
0.4939,0.0042,-0.2496,6
0.4268,-0.0473,-0.2303,6
0.3657,0.0065,-0.2393,6
0.5166,0.1376,-0.2845,6
0.6589,0.2519,-0.3711,6
0.7218,0.2752,-0.2592,6
0.6248,0.1589,-0.24,6
0.3861,0.0119,-0.2354,6
0.3861,0.0119,-0.2354,6
0.4169,-0.0116,-0.2303,6
0.4776,0.0265,-0.2731,6
0.5453,0.0147,-0.284,6
0.5303,-0.0087,-0.2198,6
0.5379,0.0695,-0.2092,6
0.5142,0.098,-0.2329,6
0.3782,0.1649,-0.3687,6
0.4473,0.1128,-0.3471,6
0.4493,0.0381,-0.2655,6
0.4493,0.0381,-0.2655,6
0.4629,0.0498,-0.2729,6
0.447,0.0781,-0.2709,6
0.4863,0.0405,-0.3216,6
0.4272,0.0494,-0.3097,6
0.461,0.0331,-0.2781,6
0.4979,0.0563,-0.2668,6
0.5335,0.0959,-0.214,6
0.5499,0.0966,-0.2583,6
0.5284,0.1221,-0.294,6
0.5227,0.0976,-0.2759,6
0.575,0.1091,-0.2887,6
0.5512,0.0836,-0.2794,6
0.5556,0.0665,-0.2937,6
0.4689,0.0173,-0.2575,6
0.4689,0.0173,-0.2575,6
0.4569,0.0364,-0.2949,6
0.3924,0.0453,-0.3086,6
0.3568,0.1007,-0.3435,6
0.3862,0.0803,-0.321,6
0.4629,0.0607,-0.2802,6
0.4777,0.0921,-0.273,6
0.5071,0.1161,-0.2922,6
0.5103,0.0918,-0.2314,6
0.5439,0.0367,-0.2563,6
0.5002,0.03,-0.219,6
0.5111,0.0395,-0.2101,6
0.4924,0.1056,-0.2561,6
0.5411,0.133,-0.2903,6
0.5311,0.1007,-0.2662,6
0.5079,0.0806,-0.2752,6
0.4994,0.0253,-0.2862,6
0.4508,0.0611,-0.2642,6
0.4031,0.0816,-0.3005,6
0.3936,0.0634,-0.3116,6
0.4681,0.0636,-0.323,6
0.4966,0.0685,-0.2996,6
0.4794,0.0683,-0.2612,6
0.5013,0.0563,-0.2755,6
0.5013,0.0563,-0.2755,6
0.4948,0.1435,-0.2511,6
0.5293,0.1093,-0.2459,6
0.5547,0.0836,-0.2459,6
0.5365,0.1002,-0.2614,6
0.5383,0.0834,-0.2594,6
0.5056,0.0857,-0.2872,6
0.5017,0.0801,-0.2838,6
0.5027,0.0789,-0.2916,6
0.4566,0.0766,-0.2924,6
0.4566,0.0766,-0.2924,6
0.4513,0.0444,-0.3144,6
0.4951,0.0618,-0.3015,6
0.4619,0.0958,-0.2505,6
0.4698,0.1195,-0.2649,6
0.4355,0.0863,-0.2863,6
0.4454,0.1219,-0.2843,6
0.4852,0.1112,-0.2946,6
0.5439,0.0803,-0.2499,6
0.5427,0.0602,-0.2892,6
0.5569,0.0761,-0.2952,6
0.5436,0.0336,-0.2486,6
0.4713,0.0459,-0.2466,6
0.4327,0.0914,-0.2701,6
0.4755,0.1055,-0.2923,6
0.4755,0.1055,-0.2923,6
0.509,0.1089,-0.2738,6
0.5151,0.0996,-0.294,6
0.4806,0.0764,-0.3063,6
0.4666,0.098,-0.2914,6
0.4373,0.0653,-0.3117,6
0.42,0.0661,-0.2798,6
0.4249,0.0608,-0.28,6
0.4971,0.0603,-0.3069,6
0.5087,0.0649,-0.2423,6
0.5087,0.0649,-0.2423,6
0.4777,0.0363,-0.2612,6
0.5333,0.0422,-0.2945,6
0.5574,0.0778,-0.3155,6
0.5564,0.1848,-0.2693,6
0.5221,0.1626,-0.2179,6
0.5466,0.1084,-0.2276,6
0.5537,0.0436,-0.2562,6
0.4497,0.0403,-0.321,6
0.3831,0.0299,-0.3764,6
0.3755,0.0381,-0.3375,6
0.378,0.0514,-0.2987,6
0.4233,0.0793,-0.256,6
0.5218,0.0895,-0.2811,6
0.5794,0.0851,-0.2033,6
0.6066,0.0968,-0.2422,6
0.6202,0.0707,-0.2198,6
0.58,0.1096,-0.2624,6
0.5316,0.1413,-0.2629,6
0.4725,0.16,-0.2977,6
0.4817,0.1482,-0.312,6
0.5116,0.1486,-0.3591,6
0.4933,0.0097,-0.2612,6
0.4177,-0.1056,-0.2204,6
0.3774,0.0763,-0.2785,6
0.3911,0.1405,-0.3247,6
0.4574,0.2136,-0.3541,6
0.4943,0.1491,-0.3774,6
0.4877,0.1249,-0.281,6
0.4435,0.0863,-0.2335,6
0.5537,0.0358,-0.2006,6
0.4936,0.0001,-0.2136,6
0.5305,0.0424,-0.2803,6
0.5198,0.001,-0.2577,6
0.5148,0.0737,-0.3172,6
0.51,0.0703,-0.2859,6
0.4916,0.1173,-0.2672,6
0.485,0.145,-0.2825,6
0.5207,0.1547,-0.3066,6
0.5111,0.1087,-0.311,6
0.5111,0.1087,-0.311,6
0.4732,0.0733,-0.2917,6
0.4133,0.0484,-0.2504,6
0.4134,0.0806,-0.2741,6
0.5251,0.0603,-0.2928,6
0.5941,0.034,-0.2661,6
0.6029,0.0786,-0.2427,6
0.46,0.1279,-0.219,6
0.4563,0.0936,-0.2587,6
0.4609,0.1396,-0.3294,6
0.4609,0.1396,-0.3294,6
