accx,accy,accz,label
1.1161,-1.2434,-1.8626,3
1.2788,-1.1522,-2.4324,3
1.6507,-1.5308,-2.1639,3
1.3629,-0.8725,-1.6614,3
0.1867,0.5407,-0.2516,3
0.1867,0.5407,-0.2516,3
0.0317,0.6089,-0.2406,3
0.6265,0.8811,-0.5858,3
-0.3726,1.4936,-0.2283,3
-0.7089,1.4865,-0.1521,3
-1.3057,1.5634,-0.0495,3
-1.2099,2.1715,0.7812,3
-0.6087,2.5176,1.3699,3
-0.0881,2.4017,1.0792,3
0.0092,2.4691,2.0355,3
0.726,2.0984,-0.6579,3
1.2448,3.2767,-1.613,3
0.5806,1.8465,-2.1984,3
-0.3534,1.3654,-0.4112,3
-2.514,-1.355,-0.6195,3
-2.514,-1.355,-0.6195,3
-3.0084,0.205,0.4846,3
-0.1092,2.5486,-0.1152,3
0.9394,1.6071,-1.9277,3
-1.4973,-1.8348,-0.9022,3
-2.2871,-4.3057,0.3807,3
-1.5874,-4.6717,0.0326,3
-1.159,-4.4397,1.9909,3
-0.3016,-7.3589,4.8077,3
1.1506,-9.9251,1.285,3
1.2195,-7.3933,-0.7844,3
2.9437,-0.8189,-0.4544,3
0.5849,0.3546,-1.0073,3
0.5849,0.3546,-1.0073,3
0.5855,-3.2911,-1.4547,3
2.222,-2.875,-1.0161,3
3.2387,-0.0838,-1.2172,3
3.3953,2.7398,-1.495,3
3.5069,4.8567,-2.3473,3
3.5518,3.6502,-3.0689,3
3.6176,3.4119,-3.1935,3
3.7793,3.4901,-2.1646,3
4.1961,2.8557,-1.4793,3
3.4916,2.0257,-1.8232,3
2.05,0.5911,-2.1317,3
2.05,0.5911,-2.1317,3
1.5795,0.7073,-1.7462,3
0.8306,0.9182,-1.0317,3
0.8969,1.4066,-0.1347,3
0.9738,1.3688,0.5891,3
0.7128,0.8216,0.2618,3
-0.1167,0.5508,-0.117,3
0.2463,2.3527,0.0906,3
0.0474,2.1547,0.8274,3
-1.7066,0.267,2.3869,3
-1.7066,0.267,2.3869,3
-2.2726,-0.5045,3.0451,3
-1.8512,-1.0454,2.9412,3
0.1217,-1.137,1.1435,3
0.8789,-0.2659,0.8495,3
0.1394,-0.7531,-0.7616,3
-0.1897,-2.3466,-2.1412,3
-0.7915,-4.0518,3.1751,3
-3.5589,-1.5812,0.8634,3
0.7529,-3.7828,-2.8089,3
1.1682,-6.1944,0.2837,3
-1.3521,-4.4226,-0.2944,3
0.7775,0.2538,-2.6395,3
1.0348,-0.6238,-4.259,3
0.2963,-2.0386,-2.3282,3
0.4442,-1.8693,-1.6722,3
0.9661,-1.2333,-0.7181,3
2.0118,0.0021,-0.271,3
1.3017,0.3696,0.2706,3
-0.1115,0.3282,0.3786,3
0.0208,1.0285,0.1757,3
-0.2004,1.6876,0.256,3
-0.9553,1.4257,0.3457,3
-1.4771,1.0009,0.6406,3
-1.8088,0.8224,1.1452,3
-1.8088,0.8224,1.1452,3
-2.0574,1.2607,1.2618,3
-2.2159,1.347,0.9233,3
-0.5889,2.0354,0.1049,3
0.6872,3.5352,1.3123,3
0.704,2.8058,1.703,3
0.6212,2.9504,0.3282,3
1.1776,1.3589,-1.4933,3
-0.3713,1.0273,-2.1909,3
-1.8601,2.4698,-0.5325,3
-1.9081,1.5379,0.4525,3
-0.5036,0.4095,0.1573,3
0.2293,1.196,-0.3173,3
-0.8829,-0.2023,-1.1357,3
-1.4595,-0.7446,-1.0177,3
-4.7558,-3.2056,2.8979,3
-4.0188,-5.1323,3.7989,3
-0.7064,-8.2419,5.9332,3
1.0626,-8.7041,1.6263,3
2.4342,-7.1707,-0.0537,3
3.1088,-4.727,-1.1823,3
2.1378,1.1419,-0.7683,3
0.259,1.2567,-2.0897,3
1.2221,-2.403,-1.6142,3
1.2221,-2.403,-1.6142,3
2.4992,-0.9212,-1.5485,3
3.7954,3.0806,-1.2421,3
3.5909,4.2002,-1.3441,3
3.182,3.2466,-1.7433,3
3.2084,4.0529,-2.0557,3
3.1959,4.7524,-2.0196,3
3.447,4.0567,-1.5501,3
2.6788,2.2204,-1.5278,3
0.9727,0.1274,-0.8573,3
0.5773,-0.131,-0.6774,3
-0.4366,-0.3429,-0.1969,3
-1.2104,1.5285,0.128,3
-1.0378,3.5502,0.1394,3
-1.0378,3.5502,0.1394,3
-1.1423,2.8107,0.2577,3
-0.9042,0.7456,1.9843,3
-1.7451,-1.4267,2.9241,3
-1.546,-1.4117,4.2899,3
0.2573,-0.8339,3.8446,3
0.2263,-0.4519,3.5016,3
0.4729,-2.5402,2.5819,3
0.8705,-4.156,-0.7354,3
-0.5407,-3.4288,2.5125,3
-3.458,-2.1134,-4.7094,3
-2.3161,-2.7861,-4.3572,3
0.2733,-4.6321,-0.1503,3
0.4209,-1.7305,-1.8843,3
0.635,0.5815,-5.2176,3
-0.1354,-2.5095,-0.9918,3
-1.2027,-2.6583,-0.5516,3
0.2761,-1.2602,-0.5048,3
1.592,-0.4675,0.0607,3
0.7036,0.2129,0.9315,3
-0.7404,0.9755,0.9212,3
-0.7404,0.9755,0.9212,3
-0.535,1.2948,0.4507,3
-1.0025,1.6205,0.7641,3
-2.1076,1.216,1.2872,3
-3.1728,1.4936,2.3603,3
-2.2622,1.7353,2.495,3
-1.366,1.9355,2.3964,3
-0.8639,3.1192,1.414,3
-0.2705,3.5848,1.4294,3
-0.4686,2.1737,0.1329,3
-0.0072,2.214,-0.4912,3
-0.6028,2.1276,-1.5124,3
-0.5621,1.6333,0.8864,3
-1.1048,1.325,2.6159,3
-1.563,1.7265,-0.7312,3
-1.563,1.7265,-0.7312,3
-2.3105,1.7757,0.2865,3
-3.9162,0.1722,2.1352,3
-5.6674,-6.7098,4.0778,3
-0.502,-11.8701,3.3394,3
2.8716,-8.5551,-0.304,3
5.8337,-3.2236,-2.076,3
2.5683,-3.4358,-0.027,3
-0.4201,-4.2477,0.2465,3
-2.0754,-3.6196,-0.1904,3
-2.0754,-3.6196,-0.1904,3
0.2202,-1.8728,-1.2776,3
4.508,2.071,-0.9966,3
5.4815,4.0992,-0.4747,3
4.1135,3.7376,-0.8633,3
3.1367,4.2667,-1.0573,3
3.3569,4.7459,-1.6343,3
3.9311,5.1033,-1.5381,3
3.2295,4.9273,-1.7211,3
1.0911,4.0177,-1.1461,3
0.3275,3.2776,-0.5374,3
-0.4386,1.3555,0.4825,3
-1.6539,1.205,1.306,3
-0.3408,2.1602,2.6256,3
-0.8504,2.2905,2.8874,3
-1.1475,1.4107,2.1526,3
-2.0332,-0.2733,1.6701,3
-2.1685,-1.1899,4.4698,3
2.017,2.3179,2.2503,3
0.8865,0.364,4.5098,3
-2.8124,-6.2174,1.7737,3
0.4258,-5.26,-12.7271,3
3.6387,-1.9376,-4.5857,3
0.5785,-5.4203,2.7486,3
0.0168,-8.472,-3.592,3
0.6575,-11.2138,-5.6666,3
6.1938,2.8269,-1.9075,3
3.0222,-1.8414,-5.2673,3
1.6962,-4.1583,-5.4905,3
-0.4348,-6.4862,-4.3708,3
-0.1219,-1.1808,-1.4326,3
1.0169,1.1599,1.6241,3
0.8191,0.5649,0.3164,3
-0.4962,1.076,-0.7433,3
-0.1843,2.5222,-0.9407,3
0.5021,2.6515,-1.3984,3
1.1675,1.8229,0.0118,3
-0.0062,0.2939,2.4041,3
-1.335,-0.5934,1.1436,3
-2.4482,0.3896,0.1729,3
-2.4482,0.3896,0.1729,3
-2.2731,0.6798,0.7657,3
-2.4504,0.9122,0.5038,3
-3.3269,-0.831,-0.7258,3
0.9493,0.6412,0.8509,3
1.2606,0.8377,1.367,3
-0.9455,-0.2649,0.1123,3
-0.7458,-0.2575,-0.5636,3
0.5073,-0.6634,0.4326,3
-0.9266,-0.2752,1.0937,3
-0.9266,-0.2752,1.0937,3
-2.2079,-1.0451,1.0302,3
-4.2051,-3.8063,0.2445,3
-3.1851,-2.9849,1.5714,3
-2.2378,-2.1122,3.4675,3
-0.6099,-2.8872,6.3811,3
1.9835,-6.5344,6.6971,3
6.3316,-8.193,0.8821,3
8.617,-6.1937,-6.1414,3
1.1558,-3.0486,-5.0376,3
1.1558,-3.0486,-5.0376,3
-1.9624,-3.8437,-2.2715,3
-5.4437,-5.2132,-2.9775,3
-2.6013,-4.3897,-2.1593,3
5.6581,2.0361,-3.4099,3
8.8555,4.9746,-4.046,3
8.2157,4.1259,-3.1693,3
5.8496,1.2105,-2.6154,3
4.4252,0.9902,-3.8992,3
4.5462,2.9654,-4.1607,3
4.9915,3.0405,-4.0905,3
4.9481,2.5067,-3.5941,3
4.457,2.4106,-3.4122,3
3.6849,2.5586,-3.1249,3
3.6849,2.5586,-3.1249,3
3.1736,2.6233,-2.7084,3
2.1578,2.0018,-2.0154,3
1.9505,1.1154,-1.0147,3
-0.6017,-3.0219,1.1748,3
-2.4012,-3.8907,1.7704,3
-1.9458,-2.287,3.5551,3
-1.7749,-1.4578,1.9603,3
0.152,-2.38,0.2528,3
2.9368,-4.7212,1.7138,3
2.9368,-4.7212,1.7138,3
1.8288,-5.7124,4.8926,3
-4.3451,-1.4362,4.5265,3
-4.6924,-3.1142,3.1471,3
3.9256,3.3945,-2.3969,3
7.757,3.5899,-1.112,3
3.5698,1.0714,-3.9909,3
-4.6149,-3.4196,-8.2005,3
-2.0523,-2.3227,-1.0515,3
5.7546,1.1962,3.832,3
5.9616,1.4941,-0.8873,3
2.6585,0.2684,-2.5019,3
-1.4544,-1.3597,-3.0162,3
-2.2298,-1.4866,-2.8984,3
-1.3937,0.168,-0.7805,3
-1.3937,0.168,-0.7805,3
-0.6239,0.2093,-1.748,3
0.3362,0.4952,-1.8704,3
1.2106,0.3654,0.2245,3
0.6873,-0.0215,0.6227,3
0.1407,0.1257,0.341,3
-0.7563,0.4533,-0.214,3
-1.4077,0.9107,-0.1226,3
-1.3445,0.7602,0.3849,3
-1.1413,0.4453,0.1072,3
-0.9934,0.3287,0.1554,3
-0.6434,0.0562,0.6897,3
-0.8109,0.2968,0.6152,3
-1.7051,0.8726,0.0186,3
-1.4277,0.6616,0.8713,3
-1.3899,-0.048,0.9783,3
-1.7883,-0.3539,1.54,3
-2.8093,0.0316,1.92,3
-3.4036,-0.0085,1.8104,3
-4.3528,-0.9492,0.5364,3
-4.3528,-0.9492,0.5364,3
-4.1559,-2.0618,1.3873,3
-2.16,-4.2938,3.5706,3
4.0656,-5.1375,4.9039,3
4.0656,-5.1375,4.9039,3
5.6677,-6.3353,0.2781,3
6.4423,-6.9518,-5.0195,3
0.6799,-2.3452,-6.8776,3
-2.4537,-1.4185,-4.4859,3
-2.8064,-2.8554,-1.7211,3
-1.2186,-2.8965,-2.0829,3
2.9968,-0.8563,-1.9548,3
6.6341,2.1566,-2.7884,3
6.7321,3.4409,-2.0917,3
5.0878,3.194,-3.3047,3
5.0878,3.194,-3.3047,3
4.4761,3.0389,-3.5172,3
4.3389,2.5022,-3.3174,3
4.0234,2.3015,-2.7894,3
3.1857,2.1235,-2.44,3
2.6162,2.1939,-2.1691,3
2.3647,2.1749,-2.0117,3
1.3999,2.1974,-1.3607,3
1.4069,2.4143,-1.1039,3
1.5291,2.2236,-0.8965,3
1.5291,2.2236,-0.8965,3
1.1827,1.888,-0.8703,3
0.1984,1.4822,-0.5951,3
-0.3935,1.5877,-0.6811,3
-0.8143,2.5734,-0.086,3
0.7519,2.5438,0.8453,3
1.488,1.0626,1.8252,3
1.2047,-0.8371,0.8495,3
2.1433,-2.3862,1.7205,3
-0.1727,-4.6372,1.9529,3
-3.3566,-4.5792,-0.4924,3
-2.9458,-4.0333,2.136,3
-0.6866,-6.9589,9.2545,3
-1.0707,-7.6126,-0.8666,3
3.0773,1.5457,-8.9319,3
3.0773,1.5457,-8.9319,3
3.2489,3.6521,-8.2494,3
1.2864,-1.9179,-3.3896,3
-5.0623,-8.2815,0.9754,3
1.0141,1.5025,1.1731,3
4.0684,1.0795,-1.5372,3
2.0408,-0.0379,-1.0906,3
-0.4504,0.2814,0.6797,3
-1.4107,1.3436,0.5155,3
-1.2855,1.8925,0.9316,3
-1.3317,1.8258,1.0078,3
-1.5813,1.3805,1.1861,3
-2.2525,1.236,1.9606,3
-2.3304,1.3484,2.3816,3
-1.7535,2.4316,0.3926,3
-1.1023,3.186,-0.1833,3
-1.1538,3.4308,0.309,3
-1.4903,2.0543,0.9052,3
-0.5305,2.4642,-1.1868,3
0.2605,3.3772,1.4424,3
0.2605,3.3772,1.4424,3
0.3926,2.8298,-0.767,3
0.2848,2.8743,-2.3169,3
-1.9216,0.7085,-0.3975,3
-1.3152,0.9254,-0.506,3
0.3374,-0.178,-0.939,3
-0.1331,-1.9124,-3.073,3
-1.8963,-4.8288,0.2301,3
0.533,-7.4679,6.7433,3
0.7773,-9.0917,6.0422,3
0.0795,-10.9431,3.255,3
-2.3327,-6.3852,0.7954,3
0.5451,-3.2421,-0.2924,3
2.206,-3.1188,-0.412,3
2.6487,-3.0301,-0.3486,3
4.8577,-1.9699,-0.1855,3
4.2252,0.3998,0.1515,3
2.7315,1.4638,-1.0051,3
2.837,2.6981,-2.5871,3
2.7433,3.6283,-2.3347,3
2.7703,3.746,-2.0082,3
3.1454,3.8255,-1.6288,3
3.54,4.3569,-1.5636,3
2.9691,3.5219,-1.6411,3
2.9691,3.5219,-1.6411,3
2.5257,2.7409,-1.6167,3
2.0612,1.4725,-1.0864,3
-0.0076,0.3782,-0.7317,3
-0.0076,0.3782,-0.7317,3
-0.6069,1.0019,0.2832,3
-0.4349,1.4645,0.7993,3
-0.0479,2.0142,0.8195,3
0.331,2.5633,0.5002,3
0.3568,1.7448,-0.0746,3
0.3608,1.0957,0.9797,3
0.2732,0.8035,1.6833,3
-1.3899,0.6971,1.2669,3
-3.0635,1.6797,-0.4909,3
-1.1513,1.504,0.9016,3
-1.1513,1.504,0.9016,3
0.0436,1.223,2.1609,3
0.622,-0.4982,2.5629,3
0.8149,-3.2519,-0.9081,3
-2.2671,-4.2276,-0.1736,3
-3.9861,-2.8926,0.5325,3
-0.4972,-6.6304,5.1651,3
0.0643,-6.8651,-1.9749,3
1.7539,-3.7895,-4.2679,3
1.1524,0.4994,-4.5947,3
1.1524,0.4994,-4.5947,3
-2.2435,-4.4415,-2.876,3
-0.0466,-3.1473,-1.5324,3
2.9254,0.6227,-0.4241,3
2.3361,0.7007,-0.5372,3
0.9187,1.0304,-0.2895,3
-0.7729,0.8532,-0.6188,3
-1.1388,1.2995,-0.6676,3
-1.0841,1.2048,0.2613,3
-1.3883,0.1327,1.3912,3
-1.0127,0.2811,0.9186,3
-1.0185,0.9399,-0.0946,3
-1.3339,0.5991,0.8014,3
-1.2432,0.3773,0.2974,3
-1.3217,0.5128,-0.3119,3
-1.4975,0.9457,-0.5018,3
-1.5351,2.191,-0.4723,3
-1.4049,2.4941,-0.0796,3
-1.3431,2.7905,0.3488,3
-0.1851,1.9829,0.7163,3
-0.094,2.9224,-0.3858,3
0.5516,3.8749,-0.5154,3
0.8972,5.0083,1.9408,3
0.7507,1.4314,-2.0718,3
-2.4342,-1.6498,-1.6485,3
-3.1911,-1.698,-0.6727,3
-3.9175,0.3912,0.1457,3
-1.7133,3.3791,-0.9795,3
-1.0428,1.3518,-0.7348,3
-2.7543,-4.0064,0.7891,3
-1.2858,-8.2118,1.2449,3
-0.3594,-7.9844,1.5084,3
-0.207,-6.1078,3.0092,3
1.7246,-6.9178,0.6106,3
-1.1054,-9.092,0.8809,3
0.7886,-3.3224,0.1801,3
0.9152,-1.1772,-0.6251,3
1.6042,-0.9063,-1.1763,3
2.7694,-1.0958,-1.0371,3
2.6678,0.613,-0.9322,3
2.8034,1.0851,-1.0318,3
3.4393,2.6938,-1.6792,3
3.1945,3.8371,-2.3111,3
2.8303,4.0304,-3.226,3
3.159,4.1875,-2.4868,3
2.8787,3.0454,-1.785,3
2.6365,2.6324,-2.1883,3
2.303,1.9631,-1.7133,3
2.214,1.2956,-0.6043,3
1.2532,1.9795,-1.2653,3
1.2532,1.9795,-1.2653,3
0.7284,2.776,-0.2261,3
0.5047,2.9706,-0.7176,3
0.5452,2.4666,-0.8039,3
1.1679,1.1538,0.4829,3
2.214,2.1218,0.7723,3
2.0184,1.422,0.3959,3
-0.2291,1.7594,0.2523,3
-1.5365,1.5861,-1.1303,3
-1.2189,2.4099,-0.139,3
-1.2189,2.4099,-0.139,3
-0.5397,2.464,1.0512,3
-0.284,1.6908,2.493,3
-3.1225,-6.2609,3.1261,3
-3.2667,-7.4097,3.5765,3
-2.8964,-8.1823,3.3955,3
-3.3084,-0.7067,-4.7507,3
-2.6869,0.8209,-5.2731,3
2.6931,-5.7927,9.6929,3
-1.7771,-9.8785,-1.665,3
-4.1925,-7.498,-6.7521,3
0.7537,4.4012,-2.2518,3
3.9412,2.6444,-1.0047,3
-3.2549,-6.2861,-2.3594,3
-3.2549,-6.2861,-2.3594,3
-1.2318,0.3168,2.0555,3
1.5711,1.1943,0.6013,3
1.1349,0.2135,-1.0964,3
-1.086,-0.1839,-0.4828,3
-1.5556,0.9536,-0.9781,3
-0.5897,1.4832,-0.6656,3
-0.4444,0.493,1.0585,3
-0.5162,0.2282,1.4918,3
-0.7015,0.5376,0.1166,3
-0.7015,0.5376,0.1166,3
-1.5824,0.5656,0.4923,3
-1.8974,0.6875,0.9363,3
-0.4996,0.7704,-0.1176,3
-0.4996,0.7704,-0.1176,3
-1.1607,1.9099,-0.7384,3
-0.4287,3.8796,0.3682,3
1.1101,2.3661,1.3011,3
-0.1621,1.2897,0.8981,3
-0.2458,3.4354,-0.5104,3
0.1862,4.2953,-0.6589,3
0.5677,3.8951,-0.6024,3
0.1135,1.1394,-1.8346,3
-2.2286,-1.0482,-0.7785,3
-3.4905,0.3915,0.0696,3
-1.7117,-0.6502,1.1668,3
1.0902,-4.5845,1.2273,3
1.0902,-4.5845,1.2273,3
1.2834,-5.5373,-0.7018,3
-0.1407,-3.9013,2.6231,3
0.1439,-5.1155,1.8698,3
0.3056,-5.6434,1.5226,3
0.7132,-5.5997,1.1843,3
2.4598,-3.1889,-0.4331,3
