accx,accy,accz,label
0.976,1.6443,-1.1094,2
0.912,1.9353,-1.1722,2
0.5024,0.7587,-0.8138,2
0.7042,-0.2889,-0.651,2
1.3144,-1.2016,-0.7589,2
1.5792,-1.4715,-0.6629,2
1.6374,-2.4531,-0.0292,2
2.0161,-4.365,0.6771,2
3.1779,-7.8623,-0.2541,2
2.0586,-8.7713,-1.5625,2
-1.4571,-7.4806,-2.618,2
-1.7299,-6.972,-3.3889,2
0.5714,-3.9814,-0.8226,2
0.5548,-3.3712,0.0206,2
0.2916,-3.4434,0.16,2
-0.4302,-3.3256,0.7452,2
-2.7071,-1.5319,1.7709,2
-4.6896,1.1181,1.5327,2
-5.096,2.2193,1.1392,2
-5.093,2.4297,1.2323,2
-4.8981,2.6006,1.0109,2
-4.2538,2.6978,0.8475,2
-3.5166,2.0612,0.2722,2
-2.8841,0.3585,0.052,2
-2.3785,-0.0377,0.1952,2
-1.0952,0.1499,-0.0025,2
-0.379,0.908,-0.7148,2
0.5644,1.4854,-0.5784,2
1.4633,1.6591,-0.6212,2
1.4633,1.6591,-0.6212,2
1.6782,1.7907,-1.3039,2
2.1406,2.156,-1.7848,2
2.8685,2.8659,-1.9643,2
2.1317,2.922,-0.1731,2
1.4761,1.8258,0.7943,2
1.9696,-1.8905,0.1658,2
2.2638,-6.4318,-3.0722,2
0.7795,-9.0921,-4.8053,2
-0.5167,-6.681,-0.1975,2
-0.5167,-6.681,-0.1975,2
-1.181,-6.7486,0.0586,2
-1.5529,-6.4765,0.0744,2
-2.7364,-2.6219,0.207,2
-1.8055,-3.6208,0.7733,2
-0.7572,-5.1683,1.1264,2
-0.4349,-4.4895,1.8301,2
-0.6426,-1.8491,1.8942,2
-0.8189,0.4707,1.6394,2
-0.9273,1.6137,1.3077,2
-0.9273,1.6137,1.3077,2
-0.9479,2.1138,1.0737,2
-1.13,2.5589,0.9632,2
-0.9282,2.7065,0.8345,2
0.0596,1.6652,0.5607,2
0.6825,1.0697,0.4097,2
0.8775,1.0455,0.3253,2
0.3968,2.5282,-0.1162,2
-0.3357,3.9889,-0.7929,2
-0.3634,4.4609,-2.2303,2
2.457,1.6428,-10.5604,2
2.1246,0.7311,-4.8669,2
-0.6678,1.2576,-0.4633,2
-1.2316,2.7922,-0.7419,2
-0.0426,2.1892,-0.0988,2
-0.0426,2.1892,-0.0988,2
1.3793,-0.528,0.7227,2
3.0999,-3.6063,1.492,2
3.5486,-5.3604,1.233,2
2.8434,-8.3228,0.4292,2
2.0538,-9.8354,0.4419,2
-0.6136,-9.2865,1.4823,2
-4.0964,-7.3672,-0.8744,2
-3.9587,-6.0652,-6.6238,2
-0.5345,-3.6274,-2.0803,2
-0.5345,-3.6274,-2.0803,2
1.0881,-3.6746,-2.8476,2
-0.2148,-2.1576,-0.9736,2
-4.6029,0.1713,0.7653,2
-5.8028,1.7969,0.0302,2
-5.5826,2.5854,0.0363,2
-5.0736,3.4813,0.1126,2
-4.4287,3.4659,0.2625,2
-3.9046,2.7976,0.1857,2
-2.9034,1.3844,0.3494,2
-2.9034,1.3844,0.3494,2
-1.6046,-0.2115,-0.0168,2
0.123,-0.7792,-0.8147,2
1.5655,1.0028,-0.7333,2
2.4057,2.6826,-0.1785,2
3.5174,2.9075,-1.1591,2
4.0155,1.951,-2.8776,2
0.282,1.1312,-2.8627,2
-1.5869,0.0944,-0.5497,2
-1.2504,-0.9821,-0.0853,2
-1.2504,-0.9821,-0.0853,2
-1.726,-2.3518,-2.4005,2
-0.0904,-3.9001,-1.9649,2
0.5637,-4.7792,0.0195,2
0.5637,-4.7792,0.0195,2
1.8112,-7.8127,0.5263,2
2.2969,-10.0997,0.6773,2
-0.7158,-4.1868,0.9669,2
-1.9529,-0.6914,0.7928,2
-1.0361,-3.6893,1.622,2
-0.6086,-4.7794,2.0111,2
-1.279,-3.1252,2.1333,2
-1.514,-0.8056,1.8985,2
-1.4211,0.7854,1.7366,2
-1.6195,2.3112,1.7227,2
-1.6268,2.5859,1.7102,2
-1.7227,2.9702,1.7254,2
-1.2531,2.2101,1.5752,2
-0.0344,0.468,1.4,2
0.7511,0.2462,1.0016,2
0.1609,1.7661,0.8337,2
-0.3551,3.2969,0.7032,2
-0.3232,3.7608,0.3452,2
0.0626,3.0788,-0.7491,2
0.1345,2.847,-1.5581,2
0.041,2.7634,-1.3796,2
0.9541,0.3447,-1.5801,2
1.629,-0.536,-1.9807,2
1.2852,0.5724,-0.751,2
1.3316,0.6781,-0.4889,2
1.8377,0.3359,0.1614,2
1.8806,-0.518,0.4899,2
1.5827,-2.1816,1.1375,2
0.7895,-4.1058,5.4933,2
2.8052,-5.837,0.5655,2
1.8755,-8.9715,-6.8667,2
-0.4946,-8.7349,-6.1752,2
-1.4281,-5.9041,-1.8452,2
-0.9124,-4.5826,-2.7311,2
-2.3509,-4.5386,-0.2631,2
-2.3867,-4.5058,0.2117,2
-1.7537,-4.3606,0.8169,2
-2.2875,-3.1546,0.9423,2
-4.2082,0.0155,0.1039,2
-5.8283,1.9532,-0.5956,2
-5.8803,2.3512,-0.3384,2
-5.4948,2.4805,-0.1987,2
-5.1328,2.1995,-0.474,2
-4.5546,1.7153,-0.7652,2
-2.5315,1.2229,-1.1943,2
-2.5315,1.2229,-1.1943,2
1.0284,0.6393,-1.0587,2
4.0374,0.192,-0.2107,2
4.8136,1.5757,0.6961,2
3.6299,3.8567,0.3956,2
4.2201,4.6768,-1.3245,2
3.8559,4.354,-3.1214,2
0.6989,1.805,-1.2569,2
-0.7121,-1.7017,0.0806,2
-0.8481,-3.7758,-0.0389,2
-1.0587,-4.8924,-0.7466,2
-1.2178,-5.4661,-1.0045,2
-2.1009,-8.8031,-1.4244,2
-2.4673,-12.4026,-0.0994,2
-2.3938,-12.2923,0.3391,2
-3.1175,-8.3171,1.2427,2
-3.1175,-8.3171,1.2427,2
-3.2405,-3.3523,1.254,2
-0.777,-6.0251,2.3974,2
0.4417,-4.8863,3.4786,2
-0.0314,-1.9314,3.1296,2
-0.7296,-0.1988,2.5885,2
-1.0441,1.3766,2.2708,2
-1.7436,3.3305,1.8867,2
-1.7436,3.3305,1.8867,2
-1.8333,4.1533,1.6792,2
-1.8273,4.5572,1.3449,2
-1.1758,3.3864,0.9905,2
-0.2637,1.9757,0.924,2
0.031,1.8692,0.9397,2
0.4827,1.2397,1.0377,2
0.5853,0.5803,1.1107,2
0.4386,0.3192,0.4168,2
0.0313,-0.0478,-0.2893,2
-0.2338,0.4853,-0.5314,2
0.0726,0.556,-0.5,2
0.4486,0.828,-0.3108,2
1.1172,1.0836,0.1114,2
1.2668,1.0845,0.2157,2
2.4022,-0.4031,1.1793,2
3.3137,-1.8483,1.7854,2
3.8994,-3.3229,2.0718,2
2.2565,-3.1206,1.7154,2
0.7613,-3.8353,1.2973,2
0.04,-6.156,0.8959,2
-1.5467,-9.2731,-0.3691,2
-4.0036,-10.9037,-0.1166,2
-5.5795,-9.7772,1.4587,2
-4.0839,-5.2657,-6.1973,2
-4.0839,-5.2657,-6.1973,2
-2.1606,-2.9269,-4.1027,2
-3.8544,-2.2031,1.0504,2
-4.6129,-1.3716,-0.4944,2
-4.8348,0.1176,1.5196,2
-5.5644,1.1673,1.3977,2
-6.8844,1.576,0.4796,2
-7.0664,1.0515,0.0002,2
-6.3761,0.2991,-0.4454,2
-3.7679,0.5259,-0.5702,2
-3.4511,0.6122,-0.5209,2
-2.8338,0.522,-0.3058,2
-2.4023,-0.1318,-0.6759,2
-0.2944,-1.1663,-0.92,2
3.4942,-1.6815,1.1042,2
5.8418,-2.7102,1.0808,2
8.3254,-3.501,-1.7531,2
8.9239,0.2296,1.5516,2
-2.2451,-0.7271,0.0008,2
-7.2004,-5.4957,-6.6825,2
-7.3338,-8.4201,-12.1307,2
2.3881,-6.9577,1.5305,2
-0.9466,-1.0801,4.8212,2
-3.9549,1.2539,1.3767,2
-4.3124,1.7583,1.0178,2
-4.4597,2.3719,0.5689,2
-2.2885,0.1543,0.6634,2
-0.4077,-2.4732,0.769,2
0.708,-2.5101,1.4806,2
-0.7243,-0.2629,1.3682,2
-1.0932,0.3605,1.2097,2
-0.9353,-0.3564,1.043,2
-0.6769,-0.7254,0.988,2
-0.7736,-0.7063,0.7863,2
-0.6777,0.2974,0.6588,2
-0.6777,0.2974,0.6588,2
-0.589,0.826,0.6481,2
-0.6111,1.2654,0.5735,2
-0.1443,0.8236,0.5732,2
0.4111,0.0828,0.4164,2
0.4671,-0.1183,0.096,2
0.2911,0.0881,-0.2312,2
0.1708,0.4097,-0.5853,2
0.2112,0.4643,-0.8561,2
0.4958,0.2848,-1.2253,2
0.4958,0.2848,-1.2253,2
0.8125,0.2385,-1.3764,2
1.0832,0.5615,-1.5031,2
1.1081,1.2619,-1.6209,2
1.4892,1.1597,-1.3077,2
2.1777,-0.531,-0.5544,2
2.2394,-1.2614,-0.1591,2
1.8639,-0.8619,-0.061,2
2.751,-1.5248,0.1101,2
3.8992,-3.0652,0.5645,2
4.5001,-2.3441,0.7065,2
3.4232,-1.4732,0.0052,2
1.7695,-2.6268,-1.761,2
-1.8078,-5.4653,-3.3083,2
-1.8078,-5.4653,-3.3083,2
-3.7353,-6.5335,0.9997,2
-5.3626,-7.8668,-1.7248,2
-4.011,-4.9462,-2.0217,2
-4.6449,-2.2402,-0.2072,2
-3.6389,-0.4785,-0.6443,2
-2.9402,0.5745,0.0823,2
-0.3882,1.317,-1.2951,2
-1.4845,1.3377,0.3763,2
-5.679,0.4756,1.1649,2
-6.0772,0.5179,-0.1293,2
-5.9178,0.5515,-0.5038,2
-5.4672,0.8237,-1.3762,2
-5.3864,0.7245,-1.5865,2
-4.2985,0.9168,-1.6144,2
-1.2664,1.7169,-1.9277,2
-0.6843,2.0575,-0.5345,2
-1.1593,1.9971,0.5519,2
-1.9497,2.1608,1.3144,2
-2.0678,2.2314,0.0552,2
-1.3013,2.7007,-1.4425,2
-0.4867,2.2514,-2.2724,2
0.6035,0.029,-1.2343,2
0.7498,-1.7486,-0.1279,2
0.7498,-1.7486,-0.1279,2
1.1436,-0.8382,-1.5099,2
0.9287,-1.2479,-2.2718,2
2.2708,-4.8596,-1.4526,2
2.5104,-5.9683,0.7955,2
1.7838,-4.2838,0.9499,2
2.7202,-6.5733,-7.3797,2
-1.8521,-6.5988,-3.3914,2
-3.8941,-3.2128,-0.0288,2
-5.0763,1.2505,-0.3103,2
-5.7061,1.1933,-0.5282,2
-2.1398,-7.5381,1.8558,2
-2.1398,-7.5381,1.8558,2
-0.2125,-9.3455,3.5381,2
1.162,-7.0762,4.4746,2
-0.4514,-1.7767,2.3926,2
-0.1224,-1.6115,-0.6717,2
0.7883,-2.0759,-1.5815,2
1.2869,-0.7207,-2.4699,2
1.1731,0.4043,-1.3355,2
1.0396,1.4212,-0.8805,2
0.7805,2.7435,-0.5363,2
0.7805,2.7435,-0.5363,2
0.8816,3.1398,-0.6124,2
0.8165,3.3397,-0.7655,2
0.8116,2.9354,-1.0343,2
0.6659,3.5111,-1.5441,2
0.2886,4.1313,-1.8913,2
0.1089,3.719,-1.9184,2
0.7919,1.2169,-1.7478,2
0.5538,-0.5737,-1.0203,2
-0.0596,0.1835,-0.4547,2
0.1996,1.4794,-0.168,2
1.1713,0.6887,0.5968,2
2.0087,0.1265,1.2588,2
2.1458,0.052,1.412,2
2.8419,-0.5043,2.0541,2
2.5602,-1.4189,2.1655,2
1.9327,-2.0147,1.9635,2
1.5394,-3.7035,1.8762,2
1.648,-7.4334,1.6349,2
0.2871,-10.9385,-0.2374,2
-4.0781,-11.5179,-1.1461,2
-4.362,-6.0611,-1.8602,2
1.4914,-1.1498,-12.3122,2
-0.6298,-2.0349,-0.2143,2
-0.6298,-2.0349,-0.2143,2
0.3008,-1.73,-3.4086,2
-2.5562,-1.0832,0.0819,2
-4.5497,0.3194,-0.2457,2
-5.4852,1.1983,0.8874,2
-5.8671,1.8645,1.5038,2
-6.0683,2.2852,1.5471,2
-5.7877,2.1752,1.1958,2
-4.9712,0.6143,0.349,2
-3.4686,-0.871,-0.3107,2
-3.4686,-0.871,-0.3107,2
-1.7735,-0.9289,-0.6295,2
-0.1374,-0.2778,-1.0652,2
1.8284,-0.1969,-0.6403,2
2.6151,0.7735,0.2056,2
2.4208,2.0869,-0.2501,2
2.8021,3.0257,-1.2862,2
2.903,3.372,-1.1989,2
1.9041,3.0826,-0.6198,2
1.4413,2.0322,-0.7595,2
0.8206,0.6316,-0.7823,2
0.2428,-0.6247,-0.7638,2
0.2347,-2.0432,-0.3331,2
-0.973,-3.8391,-2.5456,2
-0.973,-3.8391,-2.5456,2
-0.2824,-1.3631,-0.9452,2
-0.2656,-1.6868,-0.6912,2
0.6263,-4.7283,-0.3484,2
2.3148,-9.0276,0.1298,2
-0.0462,-7.6803,1.2015,2
-1.2666,-3.5095,1.1063,2
-1.0246,-2.5305,1.1423,2
-0.5832,-3.2955,1.8033,2
0.1691,-2.2538,2.1135,2
-0.0239,-0.295,2.0394,2
-0.0606,0.0702,1.941,2
-0.0606,0.0702,1.941,2
-0.3485,2.0342,1.6043,2
-0.747,2.7611,1.2001,2
-0.5476,2.9678,0.6683,2
-0.2497,2.8225,0.455,2
-0.1091,3.1361,0.3111,2
0.0093,3.6276,0.2023,2
0.4097,3.5538,0.1191,2
2.0513,2.2138,-1.9302,2
2.0513,2.2138,-1.9302,2
1.9232,3.0476,-6.7047,2
0.4747,3.6661,-1.5604,2
0.2627,2.1561,0.1715,2
0.6561,-0.2766,-0.0167,2
0.7968,0.7764,0.3664,2
1.9143,0.3201,0.8036,2
2.8946,-2.4928,0.7594,2
2.9588,-7.2833,0.0515,2
1.2733,-11.3888,0.6421,2
0.5221,-11.4114,1.1354,2
-1.2667,-10.8095,2.3054,2
-2.3867,-9.6293,1.9962,2
0.1272,-4.7068,-5.3266,2
0.0249,-4.169,-4.7333,2
-0.6149,-2.6661,-3.1089,2
-2.1593,-1.7204,-2.8856,2
-2.8573,-0.8401,0.2213,2
-4.3112,0.3164,2.0394,2
-5.2106,2.1388,2.2616,2
-6.0964,3.1724,-0.077,2
-6.3516,3.2852,-1.5641,2
-5.6538,2.4945,-1.4583,2
-4.4897,1.2418,0.1819,2
-3.0609,0.194,1.2459,2
-3.0609,0.194,1.2459,2
-2.5421,0.1501,1.1682,2
-2.352,0.9842,0.8368,2
-1.5658,2.1207,-0.2958,2
2.8073,2.6774,-1.9142,2
3.8035,1.7217,0.316,2
4.1636,0.8318,0.9686,2
4.0853,2.5188,-1.6143,2
2.6727,1.9523,-2.1726,2
1.2766,-1.2989,-0.8011,2
0.5388,-3.7124,0.5919,2
-0.4666,-4.8075,0.1655,2
-2.0357,-3.1001,-1.4023,2
-2.3774,-2.4048,-1.8354,2
-2.4482,-4.5535,-2.0104,2
-1.6081,-7.8059,-0.0688,2
-0.5227,-11.3183,1.3241,2
-3.4616,-3.874,1.7082,2
-3.362,-0.7993,1.3593,2
-0.7624,-3.9343,2.2863,2
0.6313,-5.1595,3.0432,2
0.5116,-3.4604,3.5746,2
-0.4911,-0.3213,2.6919,2
-0.8938,1.0781,2.1165,2
-0.8092,1.8628,1.5442,2
-0.7444,1.9167,1.4535,2
-0.3193,1.7948,1.1495,2
0.1914,1.1596,0.8209,2
0.7544,0.392,0.494,2
1.1791,0.2854,0.3159,2
1.0975,1.0035,0.1595,2
1.351,1.6721,-0.3141,2
1.3274,2.302,-1.5332,2
1.1234,3.0642,-3.8605,2
0.6906,3.6124,-3.2563,2
0.4122,3.5788,-2.6072,2
-0.7416,3.6682,-1.6116,2
-1.9078,3.2059,-1.5635,2
-1.7896,1.6256,-1.1409,2
-0.8673,0.1053,-0.2573,2
-0.8135,-0.3119,0.445,2
-0.5653,-1.1512,1.4773,2
0.1589,-2.7218,1.8863,2
0.8376,-4.6838,2.342,2
2.2049,-7.0736,3.3964,2
2.4426,-7.4117,3.5511,2
1.9373,-6.6524,3.3886,2
0.086,-4.2519,1.9444,2
1.2824,-4.3682,-1.7996,2
1.267,-5.3524,-1.3692,2
0.0083,-6.7691,-0.7517,2
-1.8383,-7.5425,-7.7851,2
-4.1508,-3.9439,-3.0995,2
-2.9219,-1.4826,-0.8371,2
-2.3066,-0.0159,1.1649,2
-3.4821,1.2836,1.2927,2
-4.2284,2.2694,0.8197,2
-4.3126,3.0854,0.6144,2
-4.5702,3.2542,-0.2318,2
-4.1279,1.9091,-0.84,2
-4.1279,1.9091,-0.84,2
-3.5618,0.6003,-0.1971,2
-2.8066,-0.0918,0.0163,2
-1.7811,0.3717,0,2
-0.6784,1.0934,-0.243,2
0.2053,2.3817,-0.1119,2
0.6371,3.5802,0.0657,2
2.0368,4.0138,-0.1234,2
4.5283,3.2187,-0.5838,2
4.5283,3.2187,-0.5838,2
6.0645,1.1812,-1.464,2
4.0703,-1.1289,-0.7954,2
2.1805,-2.6519,0.4301,2
1.0039,-4.7957,0.3756,2
0.2638,-5.7704,-0.3916,2
-2.0954,-9.8784,-9.3863,2
-1.2428,-8.3501,-0.9188,2
-2.7239,-3.6594,0.3705,2
-3.7084,-0.9265,0.3815,2
-1.5621,-4.2307,0.0924,2
-1.5621,-4.2307,0.0924,2
0.2357,-5.9464,1.2322,2
0.2827,-0.9139,2.5049,2
0.2827,-0.9139,2.5049,2
0.1359,-0.2279,1.9369,2
0.1625,0.2268,1.3112,2
0.17,0.6581,0.8855,2
0.0525,1.2805,0.6249,2
0.0459,1.9001,0.2542,2
0.4057,1.4428,0.1997,2
0.7457,1.1247,0.2551,2
0.8544,1.2435,0.2722,2
0.8584,1.5868,0.1469,2
0.4274,2.5394,-0.4788,2
0.4274,2.5394,-0.4788,2
-0.3532,3.7609,-0.8183,2
-0.9128,4.7241,-1.042,2
-1.0769,4.6137,-1.5695,2
-0.2535,1.5776,-4.0685,2
0.8442,0.1677,-3.3993,2
0.334,-0.0826,-0.7604,2
0.324,0.587,-0.3893,2
0.692,1.6312,-0.1328,2
2.0551,0.078,0.8066,2
2.2832,-0.252,0.9258,2
2.391,-0.6798,0.9586,2
2.3698,-1.8897,0.8612,2
2.933,-5.1978,0.0554,2
