accx,accy,accz,label
0.6749,-0.3416,-0.2839,4
0.6616,-0.2973,-0.3121,4
0.657,-0.3275,-0.3034,4
0.6316,-0.3077,-0.3532,4
0.6316,-0.3077,-0.3532,4
0.6481,-0.3516,-0.358,4
0.6606,-0.3006,-0.3493,4
0.6826,-0.3161,-0.3423,4
0.6488,-0.3008,-0.3229,4
0.6108,-0.3068,-0.3205,4
0.625,-0.3374,-0.3277,4
0.6592,-0.3246,-0.3256,4
0.6285,-0.2906,-0.34,4
0.6428,-0.2892,-0.3024,4
0.6569,-0.3336,-0.3168,4
0.6569,-0.3336,-0.3168,4
0.6803,-0.2808,-0.3347,4
0.6403,-0.3042,-0.2967,4
0.6563,-0.3341,-0.3179,4
0.6563,-0.3341,-0.3179,4
0.6406,-0.3502,-0.3494,4
0.6646,-0.3229,-0.3086,4
0.6789,-0.3089,-0.3385,4
0.6533,-0.2919,-0.325,4
0.6677,-0.2967,-0.3147,4
0.63,-0.2748,-0.3343,4
0.6399,-0.3255,-0.3267,4
0.6623,-0.3276,-0.3677,4
0.6715,-0.3089,-0.2995,4
0.6715,-0.3089,-0.2995,4
0.6645,-0.3054,-0.3203,4
0.6437,-0.3389,-0.3443,4
0.637,-0.289,-0.3377,4
0.6535,-0.3261,-0.3423,4
0.6515,-0.2996,-0.3494,4
0.6445,-0.2523,-0.3442,4
0.6442,-0.2835,-0.2848,4
0.7129,-0.2783,-0.2883,4
0.6242,-0.3088,-0.2964,4
0.65,-0.2571,-0.3306,4
0.6619,-0.2997,-0.3282,4
0.6551,-0.2898,-0.3567,4
0.6502,-0.3317,-0.3435,4
0.6502,-0.3317,-0.3435,4
0.6483,-0.3104,-0.3267,4
0.6434,-0.3172,-0.3166,4
0.6025,-0.3173,-0.345,4
0.6766,-0.3074,-0.3136,4
0.627,-0.3311,-0.341,4
0.6176,-0.2928,-0.3277,4
0.6279,-0.3214,-0.3286,4
0.6541,-0.3013,-0.3312,4
0.6855,-0.3175,-0.3205,4
0.6737,-0.334,-0.3255,4
0.6478,-0.3386,-0.3105,4
0.643,-0.2856,-0.3302,4
0.6194,-0.3071,-0.3642,4
0.6347,-0.288,-0.3423,4
0.6608,-0.3091,-0.3436,4
0.6397,-0.2803,-0.3366,4
0.6845,-0.3073,-0.3254,4
0.6793,-0.3076,-0.3329,4
0.6769,-0.3025,-0.3081,4
0.639,-0.2801,-0.3547,4
0.639,-0.2801,-0.3547,4
0.639,-0.2801,-0.3547,4
0.6506,-0.3146,-0.3213,4
0.6699,-0.3018,-0.3476,4
0.6699,-0.3018,-0.3476,4
0.6549,-0.285,-0.3353,4
0.641,-0.2878,-0.357,4
0.6312,-0.2984,-0.2971,4
0.6484,-0.3033,-0.3419,4
0.6706,-0.3036,-0.3553,4
0.6487,-0.2873,-0.345,4
0.6469,-0.3246,-0.2953,4
0.6249,-0.3002,-0.3384,4
0.6352,-0.281,-0.355,4
0.6521,-0.3145,-0.3353,4
0.6521,-0.3145,-0.3353,4
0.6591,-0.2868,-0.3371,4
0.6628,-0.2867,-0.314,4
0.6538,-0.3078,-0.3669,4
0.6197,-0.3176,-0.3057,4
0.6347,-0.2767,-0.303,4
0.6246,-0.2787,-0.3251,4
0.6654,-0.3133,-0.306,4
0.6772,-0.2915,-0.3582,4
0.658,-0.2761,-0.3186,4
0.658,-0.2761,-0.3186,4
0.605,-0.2351,-0.3563,4
0.6511,-0.304,-0.3033,4
0.6585,-0.3224,-0.3748,4
0.6675,-0.3254,-0.3415,4
0.6705,-0.3068,-0.3211,4
0.6195,-0.2948,-0.2931,4
0.6174,-0.3014,-0.3058,4
0.6314,-0.3152,-0.3442,4
0.6464,-0.2793,-0.3271,4
0.6705,-0.3098,-0.3304,4
0.6465,-0.3023,-0.3502,4
0.686,-0.2714,-0.3243,4
0.6649,-0.2595,-0.3247,4
0.6912,-0.3145,-0.3409,4
0.6912,-0.3145,-0.3409,4
0.6603,-0.2814,-0.3475,4
0.6414,-0.3,-0.3595,4
0.6796,-0.2773,-0.3199,4
0.6536,-0.3083,-0.3167,4
0.6625,-0.2737,-0.3435,4
0.6744,-0.2878,-0.3078,4
0.6466,-0.2349,-0.3312,4
0.6748,-0.2941,-0.3331,4
0.6748,-0.2941,-0.3331,4
0.6591,-0.2987,-0.3568,4
0.6374,-0.3125,-0.3606,4
0.6376,-0.3195,-0.3258,4
0.6376,-0.3195,-0.3258,4
0.6736,-0.3314,-0.3449,4
0.6288,-0.2866,-0.349,4
0.6566,-0.2655,-0.2799,4
0.6326,-0.3252,-0.3665,4
0.6497,-0.3192,-0.3192,4
0.6526,-0.2623,-0.3642,4
0.6404,-0.3002,-0.3421,4
0.6351,-0.2858,-0.2807,4
0.663,-0.2997,-0.3221,4
0.656,-0.2743,-0.3506,4
0.656,-0.2743,-0.3506,4
0.659,-0.2644,-0.3283,4
0.63,-0.3174,-0.292,4
0.661,-0.3056,-0.2851,4
0.675,-0.3004,-0.3279,4
0.6473,-0.2984,-0.3185,4
0.6476,-0.2912,-0.3814,4
0.6428,-0.2842,-0.3424,4
0.6452,-0.2979,-0.3626,4
0.6458,-0.3025,-0.3638,4
0.6458,-0.3025,-0.3638,4
0.6608,-0.3022,-0.3022,4
0.6339,-0.285,-0.3233,4
0.6488,-0.3018,-0.3027,4
0.6436,-0.28,-0.3338,4
0.6316,-0.3039,-0.3359,4
0.6434,-0.309,-0.3198,4
0.6745,-0.299,-0.2984,4
0.6243,-0.2717,-0.3057,4
0.6428,-0.2877,-0.355,4
0.6289,-0.3231,-0.3624,4
0.605,-0.285,-0.2975,4
0.6763,-0.3297,-0.3165,4
0.6554,-0.3345,-0.3522,4
0.6576,-0.3012,-0.3231,4
0.6576,-0.3012,-0.3231,4
0.6248,-0.2726,-0.3359,4
0.6339,-0.2919,-0.3354,4
0.6318,-0.2657,-0.3216,4
0.6506,-0.2991,-0.36,4
0.6456,-0.2712,-0.3532,4
0.6488,-0.2917,-0.341,4
0.6627,-0.3086,-0.3273,4
0.6337,-0.2932,-0.306,4
0.663,-0.3148,-0.3239,4
0.663,-0.3148,-0.3239,4
0.663,-0.3148,-0.3239,4
0.6647,-0.2535,-0.312,4
0.6765,-0.2921,-0.334,4
0.6369,-0.2941,-0.3181,4
0.6389,-0.2747,-0.2901,4
0.6461,-0.2824,-0.3332,4
0.656,-0.3292,-0.3143,4
0.6343,-0.3456,-0.3353,4
0.6495,-0.3094,-0.309,4
0.6346,-0.2736,-0.3533,4
0.6424,-0.2675,-0.3318,4
0.6396,-0.2892,-0.3623,4
0.6617,-0.2439,-0.3304,4
0.6395,-0.3015,-0.3433,4
0.6395,-0.3015,-0.3433,4
0.6495,-0.2826,-0.3333,4
0.6466,-0.3173,-0.3314,4
0.6635,-0.3292,-0.3046,4
0.6567,-0.2974,-0.3318,4
0.6427,-0.2696,-0.3167,4
0.6467,-0.262,-0.3333,4
0.6446,-0.3016,-0.2826,4
0.6467,-0.2849,-0.3274,4
0.6256,-0.3037,-0.3281,4
0.6256,-0.3037,-0.3281,4
0.6327,-0.3102,-0.3327,4
0.6549,-0.2674,-0.3471,4
0.6449,-0.2932,-0.3471,4
0.664,-0.3223,-0.3539,4
0.6351,-0.3132,-0.3465,4
0.676,-0.2586,-0.3415,4
0.6469,-0.2752,-0.3363,4
0.652,-0.2972,-0.3477,4
0.666,-0.2808,-0.3557,4
0.666,-0.2808,-0.3557,4
0.6379,-0.3148,-0.3213,4
0.6517,-0.2972,-0.3149,4
0.6741,-0.3103,-0.2984,4
0.6431,-0.3083,-0.3293,4
0.6808,-0.2968,-0.3698,4
0.6398,-0.3256,-0.32,4
0.6473,-0.3132,-0.3189,4
0.6234,-0.2863,-0.3164,4
0.6524,-0.305,-0.3407,4
0.6405,-0.3459,-0.3114,4
0.6476,-0.2957,-0.2874,4
0.6596,-0.3125,-0.3166,4
0.6526,-0.3003,-0.2977,4
0.6526,-0.3003,-0.2977,4
0.6526,-0.3003,-0.2977,4
0.6626,-0.2766,-0.3454,4
0.6596,-0.2859,-0.3731,4
0.6524,-0.3196,-0.2858,4
0.6954,-0.2835,-0.3312,4
0.6473,-0.2908,-0.3435,4
0.6434,-0.3028,-0.3459,4
0.6692,-0.2787,-0.2814,4
0.6503,-0.2787,-0.3127,4
0.6452,-0.2956,-0.3507,4
0.6522,-0.2839,-0.3366,4
0.6553,-0.2843,-0.3646,4
0.6864,-0.2847,-0.3371,4
0.6694,-0.3056,-0.3416,4
0.6556,-0.3253,-0.3465,4
0.6478,-0.3218,-0.3603,4
0.6817,-0.2771,-0.31,4
0.6598,-0.3015,-0.3196,4
0.6335,-0.2776,-0.3363,4
0.6477,-0.2861,-0.3294,4
0.6599,-0.3342,-0.3287,4
0.6509,-0.2938,-0.3619,4
0.6748,-0.3045,-0.3346,4
0.6048,-0.3062,-0.3225,4
0.6268,-0.3021,-0.3257,4
0.6117,-0.2304,-0.3568,4
0.6116,-0.3212,-0.3236,4
0.6935,-0.3304,-0.3233,4
0.6589,-0.3285,-0.3168,4
0.6858,-0.3139,-0.3371,4
0.6811,-0.2914,-0.2811,4
0.6383,-0.2988,-0.3759,4
0.6228,-0.2755,-0.326,4
0.6517,-0.3113,-0.3173,4
0.6517,-0.3113,-0.3173,4
0.6378,-0.3063,-0.3534,4
0.6878,-0.3281,-0.3537,4
0.5996,-0.303,-0.2869,4
0.6457,-0.3168,-0.2766,4
0.6649,-0.313,-0.3287,4
0.6479,-0.2983,-0.3524,4
0.6597,-0.2922,-0.3542,4
0.6338,-0.2874,-0.3371,4
0.6459,-0.3019,-0.3324,4
0.677,-0.3225,-0.3255,4
0.6442,-0.2826,-0.3201,4
0.6512,-0.3136,-0.3321,4
0.6273,-0.2933,-0.2771,4
0.6562,-0.3048,-0.3349,4
0.6562,-0.3048,-0.3349,4
0.579,-0.2698,-0.3549,4
0.66,-0.2984,-0.2829,4
0.639,-0.2845,-0.3259,4
0.6665,-0.3054,-0.3203,4
0.6556,-0.3013,-0.3324,4
0.6435,-0.2746,-0.3483,4
0.6624,-0.283,-0.3226,4
0.6811,-0.2941,-0.349,4
0.6619,-0.2969,-0.3246,4
0.65,-0.2743,-0.3419,4
0.6549,-0.2791,-0.3066,4
0.6469,-0.2886,-0.3162,4
0.6617,-0.2734,-0.305,4
0.6617,-0.2734,-0.305,4
0.6741,-0.3491,-0.3534,4
0.6954,-0.3249,-0.3387,4
0.6456,-0.2834,-0.3258,4
0.6441,-0.3291,-0.3076,4
0.666,-0.2853,-0.3511,4
0.6235,-0.306,-0.3324,4
0.6587,-0.2887,-0.3066,4
0.6086,-0.2695,-0.3442,4
0.6334,-0.2964,-0.3367,4
0.6722,-0.2911,-0.3489,4
0.6722,-0.2911,-0.3489,4
0.6616,-0.3095,-0.3432,4
0.5903,-0.3082,-0.3665,4
0.634,-0.317,-0.3172,4
0.6535,-0.3134,-0.3225,4
0.6348,-0.3134,-0.3219,4
0.6348,-0.3012,-0.3102,4
0.6248,-0.3319,-0.3605,4
0.6076,-0.2868,-0.3375,4
0.6605,-0.289,-0.3304,4
0.6726,-0.3348,-0.3095,4
0.6863,-0.2823,-0.2949,4
0.665,-0.2961,-0.3182,4
0.6286,-0.3013,-0.3191,4
0.6766,-0.3157,-0.2891,4
0.6597,-0.3153,-0.3252,4
0.6736,-0.2937,-0.3222,4
0.6597,-0.3055,-0.332,4
0.6478,-0.2641,-0.3393,4
0.6221,-0.3045,-0.3148,4
0.6434,-0.2925,-0.3429,4
0.6367,-0.3166,-0.3657,4
0.6637,-0.3187,-0.3296,4
0.6247,-0.3162,-0.3389,4
0.6467,-0.3022,-0.3441,4
0.6467,-0.3022,-0.3441,4
0.6862,-0.3271,-0.3494,4
0.6533,-0.2801,-0.2999,4
0.6292,-0.2452,-0.3228,4
0.6097,-0.2815,-0.3508,4
0.6504,-0.3053,-0.3688,4
0.6421,-0.3053,-0.2861,4
0.6572,-0.3121,-0.3251,4
0.6348,-0.2816,-0.3569,4
0.6327,-0.348,-0.3198,4
0.6327,-0.348,-0.3198,4
0.6617,-0.2853,-0.3387,4
0.6753,-0.2823,-0.3265,4
0.6681,-0.2611,-0.3339,4
0.6832,-0.2569,-0.3259,4
0.7211,-0.3033,-0.3152,4
0.6303,-0.2685,-0.299,4
0.6517,-0.2546,-0.3595,4
0.6565,-0.2841,-0.3573,4
0.7118,-0.3282,-0.3503,4
0.7118,-0.3282,-0.3503,4
0.6333,-0.3015,-0.3422,4
0.6488,-0.2865,-0.3236,4
0.6373,-0.3082,-0.324,4
0.6263,-0.2663,-0.3523,4
0.6476,-0.3123,-0.3394,4
0.6526,-0.2767,-0.3655,4
0.6716,-0.2956,-0.3371,4
0.6641,-0.2811,-0.3533,4
0.6686,-0.3412,-0.3296,4
0.6419,-0.3286,-0.2905,4
0.6524,-0.3166,-0.3051,4
0.6424,-0.253,-0.3994,4
0.6465,-0.2623,-0.3465,4
0.6465,-0.2623,-0.3465,4
0.6221,-0.3014,-0.3698,4
0.6407,-0.296,-0.3392,4
0.6808,-0.304,-0.3491,4
0.6905,-0.33,-0.3077,4
0.6804,-0.3417,-0.2723,4
0.6787,-0.3006,-0.3074,4
0.6736,-0.2415,-0.349,4
0.6397,-0.2571,-0.3123,4
0.6523,-0.2519,-0.3324,4
0.6523,-0.2519,-0.3324,4
0.6436,-0.2662,-0.314,4
0.6702,-0.2934,-0.3212,4
0.669,-0.291,-0.3767,4
0.5949,-0.2835,-0.386,4
0.5931,-0.2952,-0.3695,4
0.6046,-0.3052,-0.3467,4
0.6137,-0.2623,-0.3539,4
0.6476,-0.2985,-0.375,4
0.6404,-0.2916,-0.3805,4
0.6201,-0.2987,-0.3599,4
0.6603,-0.3192,-0.361,4
0.5668,-0.3234,-0.3589,4
0.6473,-0.3628,-0.3365,4
0.6803,-0.3068,-0.334,4
0.6803,-0.3068,-0.334,4
0.6956,-0.3215,-0.3152,4
0.6743,-0.2791,-0.2516,4
0.7045,-0.2524,-0.3132,4
0.6628,-0.2724,-0.3147,4
0.6596,-0.3072,-0.3079,4
0.6865,-0.3034,-0.3104,4
0.6325,-0.315,-0.3577,4
0.6426,-0.2694,-0.3832,4
0.6138,-0.2996,-0.3369,4
0.6141,-0.2636,-0.3458,4
0.6009,-0.2965,-0.3363,4
0.6034,-0.2891,-0.3628,4
0.585,-0.3064,-0.3502,4
0.6236,-0.2811,-0.3222,4
0.6237,-0.3644,-0.3704,4
0.7054,-0.3046,-0.3559,4
0.6885,-0.2848,-0.3233,4
0.6829,-0.3179,-0.3452,4
0.6391,-0.2149,-0.2636,4
0.6602,-0.2521,-0.3117,4
0.6247,-0.2454,-0.3463,4
0.6722,-0.2793,-0.3125,4
0.6743,-0.3386,-0.2625,4
0.6704,-0.331,-0.3183,4
0.6584,-0.3258,-0.3445,4
0.6277,-0.3059,-0.3563,4
0.6009,-0.2904,-0.3372,4
0.6417,-0.2905,-0.3345,4
0.6462,-0.3412,-0.3573,4
0.6462,-0.3381,-0.3374,4
0.6721,-0.3375,-0.305,4
0.651,-0.2119,-0.3303,4
0.6815,-0.2866,-0.3576,4
0.6765,-0.2912,-0.279,4
0.6765,-0.2912,-0.279,4
0.6476,-0.2988,-0.347,4
0.6815,-0.3113,-0.2999,4
0.6478,-0.2442,-0.3129,4
0.6581,-0.2732,-0.3546,4
0.624,-0.2939,-0.3624,4
0.636,-0.3202,-0.3731,4
0.6673,-0.2983,-0.3333,4
0.6652,-0.3276,-0.3137,4
0.6303,-0.2686,-0.3432,4
0.6497,-0.2353,-0.3083,4
0.6513,-0.2889,-0.3331,4
0.6101,-0.3126,-0.3003,4
0.6699,-0.3426,-0.2909,4
0.71,-0.2741,-0.2481,4
0.71,-0.2741,-0.2481,4
0.6549,-0.3048,-0.3193,4
0.6639,-0.2658,-0.2914,4
0.6398,-0.281,-0.3927,4
0.6354,-0.2901,-0.3509,4
0.6619,-0.3513,-0.3278,4
0.6834,-0.3438,-0.3363,4
0.6525,-0.3012,-0.3191,4
0.6265,-0.3198,-0.3309,4
0.6652,-0.2773,-0.3231,4
0.6652,-0.2773,-0.3231,4
0.6514,-0.2808,-0.3436,4
0.6775,-0.2881,-0.3502,4
0.6584,-0.2666,-0.3349,4
0.6513,-0.2713,-0.3091,4
0.6442,-0.3042,-0.3391,4
0.6441,-0.297,-0.3177,4
0.6199,-0.3021,-0.3184,4
0.6146,-0.3022,-0.3481,4
0.662,-0.3191,-0.3742,4
0.6327,-0.3071,-0.3396,4
0.6325,-0.3333,-0.326,4
0.673,-0.2888,-0.3271,4
0.6366,-0.2987,-0.3465,4
0.6366,-0.2987,-0.3465,4
0.634,-0.2982,-0.3711,4
0.6907,-0.2864,-0.3382,4
0.6492,-0.2935,-0.2762,4
0.6798,-0.2909,-0.3179,4
0.6566,-0.3237,-0.3118,4
0.6398,-0.2973,-0.2928,4
0.6707,-0.2808,-0.3283,4
0.6468,-0.3456,-0.3334,4
0.6214,-0.2828,-0.2891,4
0.6214,-0.2828,-0.2891,4
0.6836,-0.278,-0.3138,4
0.6645,-0.2867,-0.3726,4
0.6286,-0.2465,-0.3522,4
0.6346,-0.2873,-0.3056,4
0.6346,-0.2873,-0.3056,4
0.6294,-0.2896,-0.361,4
0.6555,-0.3421,-0.3252,4
0.6271,-0.2981,-0.3333,4
0.6443,-0.2994,-0.3331,4
0.6253,-0.3212,-0.4055,4
0.623,-0.279,-0.3746,4
0.6247,-0.3149,-0.3065,4
0.6653,-0.2915,-0.3339,4
0.648,-0.2767,-0.3122,4
0.6335,-0.311,-0.3408,4
0.635,-0.2515,-0.3348,4
0.6607,-0.3115,-0.3246,4
0.6482,-0.3086,-0.3064,4
0.6668,-0.3083,-0.318,4
0.6409,-0.2959,-0.3083,4
0.6668,-0.3036,-0.3084,4
0.6408,-0.2939,-0.3323,4
0.6698,-0.3128,-0.2872,4
0.663,-0.3417,-0.3011,4
0.663,-0.3417,-0.3011,4
0.665,-0.2491,-0.2794,4
0.6774,-0.2918,-0.3213,4
0.6369,-0.2751,-0.3362,4
0.6475,-0.2916,-0.3671,4
0.646,-0.2675,-0.3416,4
0.6006,-0.3102,-0.3518,4
0.6658,-0.3187,-0.3349,4
0.615,-0.3178,-0.3546,4
0.649,-0.3011,-0.3526,4
0.6609,-0.3084,-0.3357,4
0.6489,-0.3014,-0.3118,4
0.6465,-0.2828,-0.3011,4
0.667,-0.2923,-0.3505,4
0.6714,-0.2925,-0.3263,4
0.6614,-0.3184,-0.3406,4
0.6448,-0.2979,-0.3211,4
0.6203,-0.2839,-0.3159,4
0.6838,-0.2983,-0.3055,4
0.6465,-0.2828,-0.3011,4
-0.044,0.051,-0.1584,5
-0.0524,0.1162,-0.203,5
-0.0197,0.1181,-0.1859,5
-0.0146,0.1424,-0.0432,5
-0.0279,0.0755,0.0742,5
-0.0069,0.0927,0.1269,5
-0.0325,0.1547,0.0142,5
-0.0426,0.1218,-0.0886,5
0.0324,0.0878,-0.0651,5
-0.0362,0.1189,0.0111,5
-0.0773,0.1648,-0.0269,5
-0.0856,0.1357,-0.0343,5
-0.0844,0.1336,0.0027,5
-0.0448,0.0326,-0.0661,5
-0.0998,0.0874,-0.0158,5
0.0788,0.1453,-0.0557,5
0.108,0.1335,-0.0842,5
-0.0345,0.1408,-0.0613,5
-0.0537,0.0948,0.0119,5
-0.1308,0.0395,0.0113,5
-0.0374,0.0734,-0.046,5
-0.0374,0.0734,-0.046,5
0.006,0.0975,-0.0558,5
0.0113,0.1527,0.0294,5
-0.0083,0.1098,0.0638,5
-0.038,0.1068,0.0328,5
-0.034,0.0949,-0.0213,5
-0.0453,0.0979,-0.0685,5
-0.0574,0.131,-0.0682,5
-0.0573,0.129,-0.0012,5
-0.0573,0.129,-0.0012,5
-0.0238,0.1099,0.0017,5
0.0057,0.1221,0.02,5
-0.0302,0.1222,0.0501,5
-0.0534,0.0502,0.0171,5
-0.034,0.0692,-0.0564,5
-0.0488,0.0903,-0.1564,5
-0.0462,0.1143,-0.0736,5
-0.0186,0.1483,0.029,5
-0.0568,0.0791,0.0676,5
-0.0568,0.0791,0.0676,5
-0.0674,0.0901,-0.0153,5
-0.0295,0.1101,-0.1803,5
-0.0067,0.0862,-0.1675,5
-0.0286,0.1226,0.1334,5
-0.0324,0.1486,0.1891,5
-0.0926,0.0986,0.1065,5
-0.062,0.1003,-0.1018,5
-0.0763,0.0934,-0.1799,5
-0.0074,0.1147,-0.0708,5
0.0279,0.0937,-0.007,5
0.0296,0.1149,0.144,5
-0.0128,0.0959,0.2087,5
-0.0069,0.0769,0.0615,5
-0.0763,0.0841,-0.1985,5
-0.0909,0.1152,-0.1689,5
-0.0974,0.1423,0.0343,5
-0.054,0.1202,0.0871,5
-0.0163,0.1062,0.0097,5
0.0044,0.1183,-0.0531,5
0.0044,0.1183,-0.0531,5
0.0226,0.0683,-0.0307,5
0.008,0.0965,-0.0082,5
-0.0275,0.1016,-0.0386,5
-0.0437,0.1087,-0.0249,5
-0.0225,0.1038,-0.0227,5
-0.0356,0.1208,0.0043,5
0.0334,0.148,-0.0681,5
-0.0544,0.1121,-0.0869,5
-0.074,0.119,0.0249,5
-0.074,0.119,0.0249,5
-0.0264,0.0729,0.0381,5
-0.017,0.1018,-0.0345,5
-0.0014,0.1378,-0.0876,5
-0.0785,0.0949,-0.008,5
-0.0235,0.1088,-0.0363,5
-0.0104,0.1428,-0.0495,5
0.0262,0.0808,-0.0121,5
-0.028,0.112,0.0256,5
-0.0219,0.069,-0.0213,5
-0.0219,0.069,-0.0213,5
-0.0086,0.0851,-0.0702,5
-0.1183,0.0592,-0.0184,5
0.0719,0.131,0.0306,5
-0.0893,0.073,-0.0961,5
-0.1074,0.1569,-0.1353,5
-0.0721,0.1038,-0.0809,5
-0.0024,0.1327,0.049,5
0.0074,0.1357,0.1798,5
-0.0561,0.1036,0.1154,5
-0.0561,0.1036,0.1154,5
-0.11,0.1014,-0.038,5
-0.1004,0.0914,-0.1095,5
-0.0555,0.0653,-0.0912,5
-0.1659,0.0963,0.0328,5
0.0957,0.0631,0.052,5
0.1613,0.0634,-0.0583,5
0.0069,0.1596,-0.143,5
-0.0664,0.0827,-0.0174,5
-0.0996,0.1186,0.1546,5
-0.0996,0.1186,0.1546,5
-0.0723,0.1373,0.1706,5
-0.1023,0.1062,0.0174,5
-0.055,0.0408,-0.1996,5
0.0231,0.1081,-0.1557,5
-0.0039,0.1202,-0.0465,5
-0.0066,0.0995,0.1776,5
0.0004,0.0996,0.1215,5
-0.1229,0.1446,0.0311,5
-0.1348,0.0914,-0.0495,5
-0.0772,0.1203,-0.114,5
0.0028,0.1253,-0.1449,5
-0.0106,0.1014,-0.0834,5
-0.0572,0.1375,0.0482,5
-0.0948,0.1013,0.1493,5
-0.0894,0.1131,0.0686,5
-0.0607,0.087,-0.1233,5
-0.0061,0.0721,-0.1576,5
0.0074,0.0803,-0.0696,5
0.0074,0.0803,-0.0696,5
0.1022,0.0823,0.1176,5
0.1664,0.1234,0.0295,5
0.0161,0.0848,-0.1514,5
-0.0227,0.112,-0.1775,5
-0.0632,0.1192,-0.0069,5
-0.1034,0.1212,0.0611,5
-0.1301,0.1671,0.1496,5
-0.0452,0.0657,0.0622,5
-0.0658,0.0967,-0.0942,5
-0.0658,0.0967,-0.0942,5
-0.0894,0.1158,-0.1814,5
-0.1124,0.1238,-0.1347,5
-0.0409,0.1548,-0.0026,5
0.0608,0.1208,0.1568,5
0.0538,0.0969,0.119,5
0.0054,0.071,-0.0004,5
-0.0205,0.066,-0.1117,5
-0.0291,0.1122,-0.1113,5
-0.0681,0.0953,-0.0308,5
-0.0729,0.1122,0.0151,5
-0.1098,0.1212,0.0118,5
-0.114,0.1161,0.0269,5
-0.017,0.1,-0.0457,5
-0.0208,0.052,-0.0606,5
-0.0003,0.0541,-0.0439,5
-0.0488,0.0922,0.0024,5
-0.229,0.2787,0.6762,5
0.1665,0.2266,-0.1095,5
0.0853,0.0972,-0.496,5
-0.0022,0.0374,-0.484,5
-0.0684,-0.0244,-0.3681,5
-0.2281,0.1726,0.1143,5
-0.2179,0.1502,0.3716,5
-0.0065,0.0636,0.1849,5
0.0669,0.1326,-0.1216,5
0.0465,0.0948,-0.185,5
-0.0064,0.049,-0.1535,5
-0.0929,0.126,0.0308,5
-0.0929,0.126,0.0308,5
-0.1092,0.1118,0.1099,5
-0.097,0.0947,0.1059,5
-0.0377,0.0874,0.0416,5
0.0526,0.1373,-0.0825,5
-0.0271,0.0847,-0.0751,5
-0.0591,0.1137,0.0335,5
-0.0875,0.1087,0.0673,5
-0.1016,0.1015,0.0111,5
-0.0814,0.0963,-0.073,5
-0.0814,0.0963,-0.073,5
-0.0667,0.1231,-0.0414,5
-0.0298,0.1182,0.0164,5
-0.0617,0.068,0.0584,5
0.0174,0.0988,0.004,5
0.0406,0.087,-0.1049,5
-0.0074,0.1061,-0.1229,5
-0.0443,0.0222,-0.0936,5
-0.1037,0.1111,-0.0052,5
-0.0526,0.13,0.1342,5
-0.0526,0.13,0.1342,5
-0.031,0.1348,0.0608,5
-0.0472,0.1007,-0.0241,5
-0.0401,0.1108,-0.0715,5
-0.0196,0.1059,-0.0757,5
-0.2694,0.2657,0.2726,5
0.0725,0.0526,0.0141,5
0.0707,0.0767,-0.0613,5
-0.0583,0.0888,-0.1813,5
-0.0583,0.0888,-0.1813,5
-0.0821,0.0839,-0.0446,5
-0.1109,0.1347,0.0598,5
-0.0752,0.1416,0.0889,5
0.0295,0.1344,-0.0237,5
0.0048,0.0935,-0.0318,5
-0.0543,0.0814,0.0097,5
-0.0543,0.0814,0.0097,5
-0.0406,0.0953,-0.016,5
-0.0038,0.1053,-0.0356,5
0.011,0.1263,-0.0116,5
-0.0359,0.1243,0.0792,5
-0.0348,0.0762,0.0396,5
-0.038,0.0931,-0.0628,5
-0.0666,0.107,-0.1137,5
-0.0346,0.069,-0.0741,5
0.0028,0.0982,-0.0144,5
-0.0194,0.0982,0.028,5
-0.0573,0.1022,0.0768,5
-0.0996,0.1119,0.107,5
-0.0844,0.0946,-0.0523,5
-0.0667,0.0974,-0.1713,5
-0.0412,0.1334,-0.1291,5
0.0138,0.1375,0.0392,5
-0.0102,0.1164,0.1564,5
-0.0935,0.1012,0.0481,5
-0.0385,0.1037,-0.1337,5
-0.0385,0.1037,-0.1337,5
-0.0139,0.1087,-0.1108,5
-0.0143,0.1298,-0.0516,5
-0.0313,0.0849,0.06,5
-0.0825,0.1726,0.1916,5
-0.0122,0.1203,-0.0966,5
-0.0772,0.0982,-0.1746,5
-0.0627,0.1151,-0.0966,5
-0.0031,0.084,0.0794,5
0.0483,0.0979,0.0519,5
0.0496,0.0979,0.0621,5
0.0124,0.091,-0.0137,5
-0.0251,0.0811,-0.0589,5
-0.0492,0.11,-0.0187,5
-0.0904,0.127,-0.0486,5
-0.0695,0.1319,-0.0481,5
-0.055,0.0998,0.0128,5
-0.0439,0.1596,0.03,5
-0.0114,0.1115,0.0314,5
-0.0478,0.0924,-0.0162,5
-0.0478,0.0924,-0.0162,5
-0.0752,0.1093,-0.0005,5
-0.076,0.1162,-0.0617,5
-0.0339,0.0922,-0.0904,5
-0.0476,0.1091,-0.0451,5
-0.0939,0.1191,0.048,5
-0.0345,0.1429,0.0667,5
-0.0029,0.1188,-0.004,5
-0.0232,0.1068,-0.0354,5
-0.0232,0.1428,-0.0426,5
-0.0239,0.0899,-0.0222,5
-0.0058,0.0709,-0.047,5
-0.015,0.0969,-0.032,5
-0.0358,0.1208,-0.0229,5
0.0101,0.1278,-0.0295,5
-0.0196,0.1568,-0.0284,5
-0.0734,0.1398,0.0657,5
-0.0655,0.0825,0.0425,5
0.0,0.1182,-0.0823,5
0.0,0.1182,-0.0823,5
-0.0113,0.0983,-0.109,5
-0.0322,0.0602,-0.0435,5
0.0036,0.1062,0.0129,5
-0.0309,0.1103,-0.0001,5
-0.0696,0.1081,0.0039,5
-0.0625,0.0551,-0.0159,5
-0.0772,0.125,-0.0462,5
-0.0551,0.1698,0.0039,5
-0.0263,0.0667,-0.0113,5
-0.0399,0.1057,0.0553,5
-0.0705,0.1127,0.0232,5
-0.1045,0.1265,0.0035,5
-0.097,0.1363,-0.0326,5
-0.0753,0.1171,-0.0574,5
-0.099,0.102,-0.0041,5
-0.0722,0.1087,0.0682,5
-0.0185,0.0967,0.0019,5
-0.0195,0.1426,-0.0695,5
-0.0272,0.1307,-0.0398,5
-0.0272,0.1307,-0.0398,5
-0.0295,0.1428,0.0173,5
-0.0461,0.1067,0.0301,5
-0.072,0.0685,0.0115,5
-0.0363,0.0924,-0.0523,5
-0.0641,0.1163,-0.1008,5
-0.035,0.1115,-0.0791,5
-0.0098,0.1597,-0.0736,5
-0.02,0.0997,0.02,5
-0.0269,0.1015,0.0031,5
-0.0269,0.1015,0.0031,5
-0.0305,0.0894,-0.0541,5
0.0067,0.1015,-0.0627,5
0.0175,0.1138,-0.0386,5
-0.0251,0.1121,0.0011,5
-0.028,0.1191,0.0056,5
-0.0905,0.1171,-0.0032,5
-0.129,0.1548,-0.0001,5
-0.0355,0.1166,-0.0285,5
0.006,0.1478,-0.0673,5
0.006,0.1478,-0.0673,5
-0.0339,0.1408,-0.0113,5
-0.0458,0.1308,-0.0025,5
-0.084,0.1047,-0.0321,5
-0.0565,0.0946,-0.0909,5
-0.0625,0.0926,-0.0081,5
-0.0522,0.1326,0.0374,5
-0.0402,0.0966,-0.0133,5
-0.0242,0.1087,-0.0382,5
-0.0418,0.1407,0.011,5
-0.0418,0.1407,0.011,5
-0.0574,0.0946,0.0032,5
-0.0328,0.1046,-0.0394,5
-0.05,0.1306,-0.0543,5
-0.0475,0.1237,0.0564,5
-0.0141,0.0997,0.0189,5
-0.0538,0.0967,-0.0338,5
-0.0438,0.1237,-0.0611,5
-0.0576,0.1546,-0.0054,5
-0.0659,0.1046,-0.004,5
-0.0249,0.1166,0.0347,5
-0.0179,0.1185,-0.0084,5
0.0571,0.0927,-0.0504,5
0.0251,0.064,-0.0448,5
-0.1036,0.1261,0.0735,5
-0.1628,0.1878,0.2912,5
0.0564,0.1238,-0.082,5
-0.0372,0.1409,-0.2474,5
-0.0605,0.124,-0.1308,5
-0.0597,0.109,0.072,5
-0.0472,0.1209,0.1046,5
-0.0343,0.1408,0.1062,5
0.0041,0.1047,-0.0235,5
0.0694,0.112,-0.1091,5
-0.0472,0.0933,-0.0319,5
-0.0392,0.1414,0.0034,5
-0.0606,0.1193,0.0519,5
-0.0633,0.1214,-0.0112,5
-0.0456,0.1213,-0.1355,5
-0.0579,0.1294,-0.0613,5
-0.0579,0.1294,-0.0613,5
0.001,0.0954,-0.0448,5
-0.048,0.0766,0.0717,5
-0.0903,0.1174,0.0546,5
-0.0385,0.1312,-0.0498,5
-0.0807,0.1022,-0.1026,5
0.0024,0.1143,-0.0396,5
-0.0408,0.1383,0.037,5
-0.067,0.1433,0.038,5
-0.06,0.1242,-0.0397,5
-0.06,0.1242,-0.0397,5
-0.0277,0.1092,-0.0889,5
-0.0018,0.1212,-0.0139,5
0.0162,0.1006,0.0604,5
-0.0535,0.0816,0.002,5
-0.0773,0.0816,-0.0248,5
-0.0458,0.0905,-0.0911,5
-0.1011,0.1415,-0.0189,5
-0.0508,0.1363,0.0295,5
-0.0436,0.1213,-0.0187,5
-0.0436,0.1213,-0.0187,5
-0.0398,0.1213,-0.0589,5
-0.0748,0.0973,-0.0743,5
-0.0298,0.1122,-0.0118,5
-0.0041,0.0852,0.0025,5
-0.0388,0.0782,0.0091,5
-0.0485,0.0932,-0.0311,5
-0.009,0.1484,-0.0829,5
0.0016,0.1554,-0.0154,5
-0.0543,0.1365,-0.027,5
-0.0189,0.1245,0.0348,5
-0.0666,0.1094,0.0701,5
-0.0663,0.0853,0.0265,5
-0.0626,0.1142,-0.1231,5
-0.065,0.1453,-0.1119,5
-0.0315,0.1122,-0.0015,5
-0.0225,0.1052,0.0719,5
-0.0313,0.1172,0.061,5
-0.0498,0.1411,-0.0525,5
-0.0923,0.107,-0.0557,5
-0.0636,0.117,-0.1454,5
-0.0042,0.1022,-0.0691,5
0.0081,0.1174,0.0566,5
-0.0297,0.1145,0.0476,5
-0.0677,0.0765,0.0235,5
-0.0497,0.0503,-0.1363,5
-0.0188,0.0834,-0.1134,5
-0.013,0.1537,-0.0206,5
-0.0003,0.1608,0.1406,5
-0.0003,0.1608,0.1406,5
-0.0759,0.1487,0.077,5
-0.0496,0.1265,-0.0228,5
-0.0651,0.1005,-0.0955,5
-0.0051,0.0503,0.0014,5
-0.0173,0.0854,-0.0343,5
-0.0163,0.1414,-0.0225,5
-0.0146,0.1215,-0.0482,5
-0.0167,0.1217,-0.0073,5
-0.0167,0.1217,-0.0073,5
-0.0417,0.1127,0.0171,5
-0.0358,0.0667,0.0145,5
-0.0813,0.0857,-0.0206,5
-0.0561,0.0907,-0.0569,5
-0.0113,0.1487,0.0037,5
-0.0065,0.1076,0.0185,5
-0.0347,0.0978,-0.0052,5
-0.0395,0.0958,-0.0055,5
-0.1056,0.1099,-0.0432,5
-0.0578,0.1147,-0.0581,5
-0.052,0.1076,-0.0178,5
-0.0272,0.1007,-0.0045,5
0.0123,0.1077,-0.0013,5
0.0108,0.0578,-0.0026,5
-0.039,0.1179,0.0126,5
-0.0582,0.101,-0.0217,5
-0.023,0.118,-0.04,5
-0.0213,0.1132,-0.0415,5
-0.0531,0.1321,0.0251,5
-0.0688,0.1321,-0.0174,5
-0.0588,0.163,0.0114,5
0.006,0.127,-0.0465,5
-0.0032,0.1152,-0.0413,5
-0.038,0.1202,-0.0019,5
-0.0871,0.1201,-0.0069,5
-0.0895,0.1012,-0.0327,5
-0.1085,0.115,-0.0466,5
-0.0653,0.1198,-0.0355,5
-0.0264,0.1059,-0.0145,5
-0.0264,0.1059,-0.0145,5
-0.0369,0.1299,-0.0326,5
-0.0725,0.125,-0.057,5
-0.0491,0.1389,0.0123,5
-0.0368,0.1629,0.0172,5
-0.046,0.1298,0.0036,5
-0.0341,0.0788,-0.0025,5
-0.0624,0.1298,-0.0589,5
-0.0651,0.1369,-0.0782,5
-0.0651,0.1369,-0.0782,5
-0.057,0.0938,-0.0261,5
0.0007,0.1057,0.002,5
0.0353,0.1436,-0.0033,5
0.0284,0.1029,-0.0081,5
-0.0431,0.1269,0.0117,5
-0.0084,0.094,-0.0787,5
0.0011,0.079,-0.0733,5
-0.0123,0.1201,-0.0923,5
-0.0684,0.1013,-0.0637,5
-0.0736,0.1423,0.0441,5
-0.0642,0.1461,0.0077,5
-0.051,0.115,-0.0164,5
-0.0024,0.0959,-0.0129,5
0.0431,0.1321,-0.0027,5
-0.0205,0.1153,-0.0038,5
-0.0761,0.1063,-0.0136,5
-0.0977,0.0893,0.0028,5
-0.0788,0.0652,0.0133,5
-0.0312,0.1031,-0.0704,5
-0.0059,0.0942,-0.0741,5
-0.0004,0.1275,-0.0087,5
-0.0363,0.1445,0.0676,5
-0.0657,0.0895,0.0988,5
-0.053,0.1184,-0.041,5
-0.0557,0.1303,-0.1103,5
-0.0022,0.0675,-0.0582,5
-0.0022,0.0675,-0.0582,5
-0.0237,0.1347,-0.0009,5
-0.0694,0.0894,0.0276,5
-0.0694,0.0894,0.0276,5
-0.0323,0.1103,-0.0173,5
0.0334,0.1304,-0.0963,5
0.046,0.1156,-0.0336,5
-0.0027,0.0899,0.0106,5
-0.0571,0.1111,0.0312,5
-0.1026,0.116,-0.0531,5
-0.0982,0.1259,-0.041,5
-0.0361,0.1378,-0.0036,5
-0.0616,0.1258,-0.0101,5
-0.0271,0.1737,0.0472,5
-0.0492,0.0917,-0.047,5
-0.0438,0.1156,-0.0311,5
-0.0288,0.0916,0.0024,5
-0.0433,0.1256,-0.0161,5
-0.0603,0.0776,-0.041,5
-0.0268,0.1276,-0.0428,5
-0.0069,0.1307,-0.0519,5
-0.0147,0.0847,-0.0157,5
-0.0333,0.1109,-0.0018,5
-0.0671,0.1088,0.0358,5
-0.0691,0.1398,-0.0228,5
-0.0345,0.1038,-0.0426,5
-0.0264,0.1328,-0.0354,5
-0.087,0.1229,0.0147,5
-0.0585,0.0707,0.0284,5
-0.0345,0.0917,0.002,5
-0.0408,0.0826,-0.0394,5
-0.0671,0.1156,-0.0809,5
-0.0663,0.0867,-0.0407,5
0.0257,0.1447,0.0402,5
0.025,0.1309,0.0797,5
-0.0316,0.1191,-0.0066,5
-0.039,0.1022,-0.007,5
-0.0537,0.1191,-0.084,5
-0.0189,0.0852,-0.0729,5
-0.0092,0.0834,-0.0779,5
-0.0255,0.1116,0.0516,5
-0.0838,0.1387,0.0704,5
-0.0255,0.1116,0.0516,5
-3.8311,2.0789,-0.8451,3
-3.9278,1.6475,-1.1046,3
-3.6422,1.2491,-1.9018,3
-2.4006,1.3052,-1.7761,3
-0.9,1.5565,-0.6443,3
1.1752,2.065,0.9305,3
1.1752,2.065,0.9305,3
3.2633,2.057,0.9699,3
5.2149,2.9597,0.0116,3
6.0028,4.3431,-2.7026,3
4.8975,2.6332,-3.3681,3
3.0905,0.4782,-2.6086,3
0.3321,-0.2117,-1.1122,3
-0.9252,0.5424,-0.5593,3
-1.2549,-0.8041,-0.5941,3
-0.3428,-8.3076,-2.141,3
-0.3428,-8.3076,-2.141,3
-1.1297,-11.9281,-3.4156,3
-2.1343,-8.9769,-1.0282,3
-2.2197,-5.8663,-0.4464,3
0.7636,-5.8972,1.2225,3
1.4023,-3.9837,1.1301,3
0.397,-1.5602,0.4846,3
-0.4094,-0.9484,0.7045,3
-1.0677,-0.6415,2.1112,3
-1.4286,-0.5643,3.4344,3
-1.2286,-0.096,2.5539,3
-1.2841,1.124,-0.1111,3
0.0812,1.4092,-4.0823,3
0.0812,1.4092,-4.0823,3
1.2043,1.6426,-8.9157,3
0.2925,1.9817,-3.291,3
0.7864,1.805,-0.7195,3
0.7983,2.4361,0.0131,3
0.8248,3.208,0.0238,3
1.3535,3.7857,-0.011,3
2.4443,3.1443,-0.3404,3
3.2672,1.8071,-1.3639,3
1.2378,2.8082,-1.3763,3
-1.4172,3.7391,-1.0093,3
-2.5776,2.3375,-0.6356,3
-2.5776,2.3375,-0.6356,3
-2.3152,-0.2509,-0.232,3
-2.5193,-1.4111,0.224,3
-2.5043,-0.0649,0.8802,3
0.1802,-1.3177,0.7769,3
3.2652,-4.8952,0.455,3
5.1304,-7.0161,-0.0099,3
8.7796,-7.6154,-4.5789,3
6.1675,-7.6216,-9.2906,3
1.6123,-8.3704,-3.3076,3
-2.639,-7.8382,-0.196,3
-5.2946,-6.4389,1.8194,3
-5.7467,-5.9671,2.2856,3
-6.593,-4.2144,3.3449,3
-5.4994,-1.3674,2.5411,3
-3.3833,-0.3224,-0.2352,3
-0.208,1.0678,-0.4331,3
-0.0621,2.3718,0.9697,3
-1.2197,3.3101,1.8729,3
-2.6171,3.8205,1.8693,3
-3.5907,4.2229,1.4144,3
-4.342,4.6287,0.8959,3
-4.8873,4.7498,-0.2616,3
-5.1695,4.0874,-0.7951,3
-5.1695,4.0874,-0.7951,3
-3.8143,3.3037,-1.4085,3
-1.4572,2.803,-0.9801,3
0.8628,1.3499,-0.1423,3
2.6108,-0.393,0.7865,3
3.5871,0.7695,0.4609,3
3.3565,3.3588,-1.0058,3
2.5599,5.7598,-5.0679,3
2.2964,6.013,-5.5011,3
2.8491,-6.4385,-4.5845,3
3.9336,-8.1771,-2.1074,3
3.9862,-9.753,1.3761,3
0.9493,-9.0831,1.5179,3
-2.986,-6.53,0.8757,3
-2.5868,-9.0803,0.1314,3
-1.2067,-13.5306,1.1718,3
-1.7228,-5.0749,-0.6349,3
-1.5525,-1.8453,-1.3913,3
-1.4769,-1.94,0.0237,3
-2.6513,-2.2979,1.8206,3
-3.5477,-1.7238,3.5474,3
-2.8334,-0.6549,4.1854,3
-0.981,0.9767,1.4525,3
-0.981,0.9767,1.4525,3
-0.1605,1.7766,-0.361,3
3.0351,2.183,-5.5083,3
3.3306,3.0873,-8.3202,3
1.8578,3.0264,-3.5371,3
1.8597,1.6316,-0.3453,3
0.9965,2.3661,0.1641,3
0.5979,3.066,0.1081,3
0.4475,3.4779,-0.814,3
1.7156,3.2793,-2.5492,3
2.2662,2.5277,-3.4636,3
-1.126,2.7027,-1.2296,3
-1.126,2.7027,-1.2296,3
-2.4527,3.0477,-0.2536,3
-3.437,2.7857,0.87,3
-2.7166,0.4639,1.7966,3
-0.9367,-0.7071,2.0751,3
0.8022,0.8284,0.0586,3
4.3444,-2.3883,-1.2296,3
4.7739,-5.1948,-1.7794,3
6.5975,-10.3236,-3.5333,3
3.282,-9.8723,-6.0755,3
3.282,-9.8723,-6.0755,3
0.8114,-8.6015,-1.9559,3
-2.061,-7.5944,1.0561,3
-4.6493,-5.8282,2.8195,3
-5.8138,-2.7282,1.7605,3
-4.419,-1.444,-1.04,3
-1.7245,-1.2187,-1.6692,3
0.4097,-0.07,-0.6128,3
0.5985,0.8679,0.0243,3
-1.0882,2.3234,0.5067,3
-2.6276,2.8621,0.9345,3
-3.7433,2.8529,1.2049,3
-4.0237,2.872,1.156,3
-4.0237,2.872,1.156,3
-4.8301,2.6964,0.3762,3
-5.2147,2.2669,-0.1321,3
-5.0485,1.9054,-0.5012,3
-3.3364,0.8451,-1.2494,3
-0.128,0.6617,-1.0431,3
2.4367,2.0808,0.5916,3
3.975,3.0067,0.7873,3
5.2915,3.417,0.1916,3
6.626,3.4458,-2.9626,3
4.7836,3.4831,-4.1234,3
0.663,3.8451,-0.9058,3
0.663,3.8451,-0.9058,3
-1.7316,3.043,0.512,3
-1.8924,0.3074,0.5428,3
0.8948,-7.2018,-1.2589,3
0.229,-10.7575,-3.691,3
-3.2861,-9.4882,-3.439,3
-3.2687,-6.6851,-0.4343,3
-1.7469,-9.652,0.4542,3
1.6582,-7.726,2.7964,3
2.2927,-3.0503,1.8362,3
2.1625,-2.3901,1.3412,3
1.7714,-2.2076,0.1344,3
-0.8343,-1.6094,0.4021,3
-1.8414,-0.8776,1.8621,3
-2.0545,0.452,3.5451,3
-1.5521,1.4037,1.7316,3
-1.4309,2.5196,-1.778,3
0.4094,2.9198,-8.7401,3
0.5205,2.9746,-4.8695,3
0.4823,2.6643,-1.444,3
0.7498,2.7882,-0.2513,3
0.9752,3.1709,0.0627,3
0.6013,4.1648,0.1169,3
1.7134,2.7819,0.0875,3
1.7134,2.7819,0.0875,3
2.4225,0.372,-0.0488,3
1.2312,1.2141,-0.07,3
0.1029,2.3734,-0.1005,3
-0.6503,3.469,-0.9569,3
1.2619,-0.8269,-1.7382,3
1.547,-4.0455,-2.0614,3
-0.6201,1.3132,-2.6865,3
0.4474,3.9642,-2.3055,3
3.3769,-0.7968,-0.9489,3
6.8425,-5.9629,0.6615,3
6.8425,-5.9629,0.6615,3
7.5586,-5.8414,1.131,3
6.5821,-5.382,-0.8899,3
2.3112,-7.7992,-2.3403,3
-2.0939,-9.7843,0.0762,3
-5.4434,-9.4284,1.9384,3
-7.1402,-7.2892,2.4418,3
-4.0858,-4.0256,-1.1618,3
-2.045,-2.1675,-2.1545,3
-1.6027,-0.9788,0.8055,3
-1.6027,-0.9788,0.8055,3
-1.0267,-0.2485,1.773,3
-0.4019,0.438,1.1078,3
-1.2404,1.4776,1.4995,3
-3.0714,2.8335,1.5433,3
-4.2344,3.1441,0.9928,3
-4.8814,3.1996,0.4115,3
-5.6598,2.4996,-0.3457,3
-5.142,1.2888,-1.0621,3
-3.1321,0.6171,-1.8781,3
-1.4223,0.6241,-2.1318,3
-0.2736,0.7445,-1.094,3
0.2124,0.0858,-0.2975,3
0.2124,0.0858,-0.2975,3
1.254,-0.4455,-0.4583,3
4.2399,-1.1518,-2.5464,3
7.7211,-2.3985,-3.9409,3
8.8157,-2.5252,-2.456,3
5.3892,-0.2137,0.49,3
0.4815,0.3333,2.5179,3
-0.1958,-1.4358,2.289,3
-0.3642,-4.3097,1.3606,3
-1.6133,-5.4918,-1.4022,3
-3.0542,-5.6044,-9.7604,3
-2.7671,-0.0462,-0.0653,3
-2.7671,-0.0462,-0.0653,3
-3.4687,1.1974,1.0036,3
-4.0381,1.6069,1.2372,3
-4.1173,1.7473,1.601,3
-3.6317,0.2371,2.5918,3
-2.9381,-2.0864,3.349,3
-2.5013,-3.4198,4.0625,3
-2.1799,-2.2149,3.6827,3
-0.897,-0.0304,1.8263,3
0.3494,-0.0466,0.7082,3
1.4954,-1.192,-0.1804,3
1.5351,-1.1023,-0.7286,3
0.0904,-0.2488,-2.7058,3
-1.0569,-0.0643,-4.201,3
-0.7544,-0.1233,-3.2931,3
-0.0167,-0.1343,-0.8126,3
0.1608,0.0482,0.5854,3
0.1655,0.1257,0.8507,3
0.6492,0.5974,1.8158,3
1.2099,0.4884,1.397,3
1.5679,0.1484,0.4141,3
1.2939,0.1391,-0.7806,3
0.6376,0.0075,-2.4618,3
1.3079,-0.7937,-3.0939,3
1.4355,-0.6868,-2.5528,3
1.6767,-0.2208,-0.9105,3
2.1075,0.0551,0.0979,3
2.814,0.1793,0.3935,3
2.5834,-0.4809,-0.3527,3
1.7615,-1.1655,-1.1151,3
2.1096,-2.4462,-1.2919,3
2.6309,-2.6569,-1.1661,3
3.3695,-0.9551,-0.8522,3
4.3042,-1.0556,-0.5898,3
4.3042,-1.0556,-0.5898,3
3.4142,0.0033,-1.4156,3
1.922,0.049,-3.6405,3
0.6199,-1.0819,-5.0802,3
-1.2301,-2.868,-1.241,3
-2.685,-4.348,1.2007,3
-3.8317,-4.9076,2.8618,3
-5.1115,-3.8317,3.8079,3
-5.3775,-1.9742,3.5904,3
-3.8208,-0.8646,1.8447,3
-1.9411,-0.6729,0.6928,3
-0.0358,-0.3144,0.3386,3
1.4551,0.1785,0.2275,3
0.3977,0.9406,0.0884,3
-0.6228,0.9282,0.1796,3
-3.129,0.4251,1.0306,3
-3.8019,0.3911,1.4653,3
-4.485,0.7402,1.0025,3
-4.9613,0.5683,0.4802,3
-4.7405,0.4239,-0.6544,3
-3.1833,0.3142,-1.881,3
-1.3463,0.1659,-2.0824,3
0.8992,-0.4485,-1.1048,3
2.5309,-0.5793,-0.0104,3
3.6253,0.602,-0.7313,3
3.6253,0.602,-0.7313,3
3.7541,1.2571,-2.095,3
2.4368,0.9177,-1.3571,3
-0.5276,0.2446,0.4887,3
-1.3161,-3.9653,0.6373,3
-0.1069,-7.3904,-0.6465,3
-0.7102,-4.2497,-1.8562,3
-1.0706,-1.7465,-1.5915,3
-3.6586,0.3738,0.6058,3
-4.9274,-0.0596,1.1584,3
-4.9274,-0.0596,1.1584,3
-4.56,-0.6226,0.9138,3
-2.2094,-1.4373,1.2314,3
-0.8722,-1.8547,1.7319,3
0.8641,-1.3895,1.9981,3
1.9344,-0.5623,1.6187,3
3.0585,0.5126,0.4538,3
3.4051,0.4661,-0.7825,3
1.6565,0.3879,-1.1132,3
-0.2716,0.5704,-0.352,3
-0.6569,-0.0776,0.538,3
-0.6977,-0.4714,0.0168,3
-0.0855,-0.3608,-1.8353,3
1.8549,0.4422,-3.2552,3
2.7144,1.6385,-1.6961,3
2.7361,1.9054,-1.2966,3
2.6834,2.9818,-0.612,3
2.8334,3.6998,-0.8305,3
3.2024,4.4565,-1.4711,3
2.0258,4.1529,-1.0861,3
-0.2097,3.9393,-1.2545,3
-2.5794,4.0035,-0.8003,3
-3.7494,3.9976,-0.1495,3
-3.2928,2.1461,0.7192,3
-1.1176,0.7789,0.994,3
-1.1176,0.7789,0.994,3
1.9046,-0.8069,-0.3963,3
3.6774,-3.7244,0.4368,3
4.9829,-7.3509,1.2579,3
8.9803,-11.4636,-1.1047,3
6.3097,-11.3214,-6.1672,3
0.7223,-10.1862,-1.2644,3
-3.2042,-7.8553,1.1785,3
-5.5353,-3.5519,1.8115,3
-5.2535,-1.7343,0.174,3
-3.2596,-1.099,-0.8009,3
-1.4984,-0.1226,-0.0782,3
-0.3737,0.9729,0.8415,3
-0.4292,2.3272,1.3242,3
-0.4292,2.3272,1.3242,3
-2.3416,3.6357,0.6248,3
-3.1539,4.0872,0.1415,3
-3.9496,4.4549,-0.3024,3
-4.0734,4.2066,0.0674,3
-3.7942,3.5642,0.3221,3
-2.9835,2.9202,-0.0789,3
-1.6787,2.2873,-0.6331,3
2.7149,1.7143,0.4659,3
3.6939,2.1008,0.7453,3
3.6939,2.1008,0.7453,3
4.0125,2.8172,0.0914,3
3.4919,4.531,-1.991,3
1.0297,5.2625,-4.1107,3
-0.4807,3.1407,-2.8956,3
0.8475,-3.0758,-2.1377,3
4.3965,-9.7044,1.2069,3
1.2464,-12.3292,0.4088,3
-1.2545,-9.2744,-0.3811,3
-0.2527,-8.2952,-1.2109,3
-0.1068,-3.3041,0.6439,3
-1.338,0.113,1.8743,3
-1.0405,-0.9094,2.9476,3
-0.8111,-1.9952,3.5366,3
0.7718,-4.361,5.6111,3
0.1794,-1.5452,6.4471,3
0.8904,-0.0087,3.3865,3
0.9232,1.3544,0.3655,3
0.5473,2.1923,-6.7114,3
-0.9129,0.3853,-9.9196,3
-0.7196,1.9503,-4.2261,3
1.2712,2.6537,-1.4145,3
2.5257,3.704,-0.2433,3
2.8587,4.4571,0.0012,3
3.0314,5.2533,-0.4795,3
3.0314,5.2533,-0.4795,3
3.6068,4.1336,-0.6449,3
0.5668,3.1467,-0.52,3
-2.0082,3.3594,0.0246,3
-2.9784,3.8581,0.8758,3
-3.5152,3.3504,1.4854,3
-2.0353,0.8139,2.4348,3
1.7615,-3.8326,2.2923,3
4.9533,-6.9051,0.9883,3
9.7531,-8.2187,-3.4874,3
9.7531,-8.2187,-3.4874,3
9.1246,-10.0029,-11.054,3
2.5865,-9.7539,-3.3779,3
-2.6652,-8.1886,1.2969,3
-5.9167,-5.6221,3.2921,3
-6.8011,-3.0145,2.9653,3
-6.5662,-1.0043,0.9018,3
-3.6697,-1.1242,0.7107,3
1.6182,-0.1586,0.5914,3
2.8533,1.1195,0.5626,3
0.0815,2.3692,0.6496,3
-2.1207,2.6313,0.4785,3
-2.1207,2.6313,0.4785,3
-3.7929,2.8425,0.4766,3
-4.3584,2.9366,0.4243,3
-4.3314,2.9023,0.2245,3
-3.7099,2.3875,0.1077,3
-3.1827,1.8672,0.0441,3
-1.9956,0.8441,-0.0253,3
-0.0333,1.4799,0.9909,3
1.625,2.912,0.9947,3
2.4674,3.2685,-0.2739,3
3.7645,3.1887,-3.3178,3
3.5951,3.2735,-4.6754,3
0.9835,2.8814,-2.0426,3
0.9835,2.8814,-2.0426,3
-0.9298,1.8004,-0.417,3
-0.778,-0.5761,-0.0402,3
0.4064,-4.775,-0.9324,3
2.3268,-7.6184,0.0605,3
0.8142,-8.4496,0.1737,3
-1.7685,-7.2312,0.1309,3
-0.5148,-6.9478,0.2175,3
3.3977,-4.8267,1.3864,3
3.9266,-1.1371,0.0669,3
3.9266,-1.1371,0.0669,3
1.1124,-2.2168,0.3294,3
-1.1003,-2.5094,1.1621,3
-2.5452,-1.4745,2.3629,3
-2.8428,-0.261,4.1458,3
-2.145,0.6128,2.6017,3
-0.9705,0.7697,-0.67,3
2.1639,0.1328,-7.8984,3
1.7166,1.3067,-6.7126,3
0.6579,1.949,-1.5489,3
0.9191,2.3251,-0.2504,3
1.7833,2.4193,0.2858,3
1.7745,3.965,0.6118,3
1.7745,3.965,0.6118,3
1.1834,5.2597,-0.1206,3
2.2767,4.8231,-2.2193,3
2.6589,0.6267,-0.8619,3
1.7371,0.4015,0.1136,3
-0.1595,3.181,0.8635,3
-2.4253,4.4934,0.487,3
-2.7027,3.5713,0.617,3
-0.9985,0.8636,1.4938,3
2.7343,-4.4961,2.7617,3
4.6643,-7.4093,3.0865,3
7.4045,-8.8587,0.2546,3
7.353,-9.3455,-1.9111,3
4.718,-9.3903,-12.6634,3
4.718,-9.3903,-12.6634,3
-3.6242,-7.4032,0.1481,3
-5.9093,-4.5309,1.9674,3
-4.8404,-2.0819,2.4252,3
-3.0718,-0.9629,1.2602,3
-0.6766,-1.342,-0.6161,3
0.5919,-0.3146,-1.5009,3
0.042,0.4039,-0.5509,3
-0.1581,0.649,-0.1253,3
-0.9082,1.5299,1.3803,3
-1.9992,1.923,1.7229,3
-3.1173,1.9878,2.0671,3
-4.149,2.4253,2.1087,3
-4.7022,2.7207,1.0224,3
-4.8842,2.5738,0.265,3
-4.9707,2.171,-0.4087,3
-4.1647,1.564,-0.8906,3
-2.2659,2.0607,-1.6378,3
0.4829,2.4397,-0.6079,3
2.7591,2.2319,0.7406,3
4.6469,1.8728,0.8259,3
4.9179,1.9167,0.5338,3
5.3711,3.0633,-1.2848,3
4.2707,4.0133,-2.6063,3
2.2569,3.3554,-2.6086,3
0.0944,1.9855,-1.2105,3
-0.7391,-1.3481,-0.4465,3
-0.1273,-6.3231,-0.4803,3
-0.2796,-9.4792,-0.0689,3
-3.4052,-10.3763,-0.2516,3
-1.3307,-12.1952,-0.7724,3
2.0611,-7.2876,-0.4744,3
2.0611,-7.2876,-0.4744,3
3.4866,-1.8782,-0.6769,3
1.449,0.785,0.4132,3
-0.6655,0.8305,1.2691,3
-2.5001,-0.151,1.8226,3
-3.787,-0.2852,6.9869,3
-3.21,0.2235,7.6082,3
-2.247,0.9497,3.227,3
-1.6031,0.8398,-0.1946,3
4.2037,-0.6319,-14.7512,3
2.2653,0.921,-7.6083,3
2.2653,0.921,-7.6083,3
0.6801,0.4852,-1.9158,3
0.6038,0.8062,-0.0481,3
0.3953,2.0102,0.2399,3
0.1572,3.2099,0.6239,3
0.7513,2.9436,0.6843,3
1.901,1.2002,0.3715,3
1.2565,0.9812,-0.6876,3
0.0562,2.5686,-1.54,3
-0.845,3.9475,-1.7371,3
-1.9927,4.454,-1.4471,3
-1.9857,1.2964,-0.5866,3
-1.4169,-1.9185,0.8122,3
-1.4169,-1.9185,0.8122,3
-0.4032,-0.2,2.1233,3
1.4428,-1.8745,1.2122,3
3.5215,-4.6785,-0.1575,3
4.4945,-6.0758,-0.8313,3
4.442,-8.6901,-6.1707,3
2.2923,-9.5884,-4.2264,3
0.5344,-8.9711,-1.0282,3
-2.7548,-5.5197,0.9872,3
-3.7688,-2.6811,1.6559,3
-5.0304,-0.7995,0.8617,3
-5.2316,-0.5572,0.6899,3
-5.384,-0.1818,0.17,3
-3.8254,0.0674,0.0743,3
-1.3224,0.7757,0.9546,3
-0.3326,1.7951,1.534,3
-1.5434,2.0897,0.8997,3
-2.9358,2.1603,0.7156,3
-3.7676,2.2321,0.5299,3
-4.1624,2.2802,-0.025,3
-4.5036,1.7341,-0.661,3
-4.5804,1.3925,-0.839,3
-4.5804,1.3925,-0.839,3
-4.5036,1.7341,-0.661,3
0.0106,-0.0295,-0.0157,6
-0.0037,-0.0145,0.008,6
-0.0035,-0.0003,-0.0063,6
-0.0035,-0.0006,-0.0203,6
-0.0037,0.0035,-0.0341,6
-0.0275,-0.0016,-0.0052,6
-0.0409,0.0172,0.013,6
-0.0254,0.0216,-0.0113,6
0.0178,0.0026,-0.0251,6
0.0403,-0.0021,-0.0063,6
0.0107,0.0165,0.0216,6
-0.0083,0.0301,0.0251,6
0.006,0.02,-0.0185,6
0.0097,0.0053,-0.025,6
0.0097,0.0053,-0.025,6
-0.0095,0.0279,0.0177,6
-0.0327,-0.0064,0.0304,6
-0.0459,-0.0102,0.0022,6
-0.0012,-0.0074,-0.0337,6
0.0262,0.0108,0.008,6
0.0306,0.006,0.0122,6
0.0391,0.0105,0.0253,6
0.0098,0.0059,0.0056,6
-0.0043,0.0107,0.0003,6
-0.0185,0.0433,-0.0141,6
-0.0135,0.0332,-0.0043,6
-0.0085,0.0415,-0.0043,6
0.0013,0.012,0.0149,6
0.0109,-0.0465,-0.0089,6
0.0103,-0.0025,-0.0099,6
0.0149,0.0165,-0.0102,6
0.0139,0.0343,0.0032,6
-0.0104,0.0229,-0.0113,6
-0.0328,-0.0022,0.022,6
-0.0179,-0.0015,0.0022,6
0.006,0.0178,0.0015,6
0.0103,0.0311,-0.008,6
0.0193,0.0107,-0.003,6
0.0087,-0.0267,0.0055,6
-0.0148,-0.0021,-0.0134,6
-0.0287,0.0122,0.0013,6
-0.0323,0.0026,-0.008,6
-0.0174,-0.0067,-0.0229,6
0.0112,-0.0007,-0.0091,6
0.0153,-0.0006,0.0046,6
0.0239,0.0138,0.022,6
0.009,0.0275,0.0256,6
0.0134,0.0316,0.0112,6
-0.0054,0.0067,-0.0112,6
-0.0096,-0.0022,-0.0148,6
-0.0043,0.0029,-0.0182,6
-0.0183,0.0217,-0.0027,6
-0.0038,-0.0026,0.0114,6
-0.0037,-0.0118,0.0107,6
0.0054,-0.0106,-0.0085,6
0.0052,0.0134,-0.0228,6
-0.0092,0.013,-0.0134,6
-0.0184,-0.0018,-0.0091,6
0.0068,-0.01,0.001,6
0.0163,-0.0004,0.001,6
0.0203,0.0134,0.0096,6
0.0098,0.008,-0.0064,6
0.0046,0.0174,0.0024,6
-0.0044,0.0086,0.0111,6
0.0005,0.0087,-0.0123,6
0.0148,0.0086,0.0214,6
0.0146,-0.0102,-0.0067,6
-0.0045,-0.005,0.0033,6
0.0006,0.0051,0.0173,6
-0.0228,0.0009,-0.0076,6
-0.0228,0.0009,-0.0076,6
0.0016,0.0345,-0.0307,6
0.0063,0.0101,-0.015,6
0.0053,-0.0359,0.0132,6
0.0098,-0.02,0.0071,6
0.0049,-0.0151,0.0067,6
-0.0001,0.028,0.0004,6
-0.0191,0.0502,-0.014,6
0.0009,-0.0049,0.0294,6
0.0103,-0.0044,0.0232,6
0.0102,0.0149,0.0133,6
0.0052,0.0299,-0.0114,6
0.0147,0.0255,-0.0195,6
0.0375,-0.0308,-0.0092,6
0.0082,0.0125,-0.0186,6
0.0176,0.0123,0.0006,6
-0.0342,0.0065,0.0009,6
-0.0562,-0.0315,-0.0086,6
-0.0307,-0.0295,-0.028,6
0.0031,0.01,-0.0192,6
0.0444,0.0568,0.0125,6
0.0474,0.0362,0.0067,6
0.022,-0.0165,0.034,6
-0.0071,0.0268,-0.001,6
-0.0164,0.0357,-0.015,6
-0.0019,0.0346,0.028,6
-0.0014,-0.0033,0.0146,6
-0.001,-0.026,0.0018,6
-0.0148,-0.0425,-0.0011,6
-0.0048,-0.0032,-0.0332,6
-0.0092,-0.003,-0.032,6
-0.0042,0.0109,-0.0314,6
-0.0089,0.0062,-0.013,6
-0.0186,0.0247,-0.0053,6
-0.0089,0.0285,0.0119,6
-0.0181,0.0142,0.0301,6
0.0109,0.0054,0.0153,6
0.0295,-0.0078,-0.0082,6
0.019,-0.007,-0.0312,6
0.0135,0.0306,-0.0258,6
-0.0153,0.0336,0.0123,6
-0.0149,-0.01,0.0263,6
-0.0048,-0.0562,0.0117,6
-0.0046,-0.0431,-0.0114,6
0.0237,-0.0039,-0.0207,6
0.0322,0.0431,-0.0212,6
0.0168,0.055,-0.026,6
-0.0576,0.013,0.0274,6
-0.0576,0.013,0.0274,6
-0.0279,0.0227,0.0073,6
0.0014,0.0091,-0.0257,6
0.0297,-0.0088,-0.0193,6
-0.0009,-0.0033,-0.0145,6
-0.0152,0.0059,-0.005,6
-0.015,-0.0179,-0.0049,6
-0.0289,-0.0176,0.0001,6
-0.0186,-0.0171,-0.0004,6
0.0143,0.0116,-0.007,6
0.0186,0.0492,0.002,6
0.0183,0.0579,-0.0028,6
0.0178,0.0517,-0.0028,6
-0.0016,-0.0116,0.0347,6
-0.0109,-0.0007,0.0062,6
0.0131,0.0276,-0.0122,6
0.0035,0.0266,-0.0161,6
-0.0011,0.0165,-0.0057,6
-0.0102,-0.0162,-0.0046,6
-0.0051,-0.0342,0.0005,6
-0.0095,-0.0045,-0.0091,6
0.0,0.0003,-0.0279,6
-0.0049,0.0186,-0.0182,6
-0.005,0.0035,-0.0045,6
-0.0137,0.018,-0.0052,6
-0.0037,0.0228,0.0141,6
0.0059,0.0086,0.0043,6
0.0198,-0.001,0.0035,6
0.0098,0.0131,-0.0069,6
0.0143,0.0271,0.008,6
0.0,0.0123,-0.0104,6
-0.0001,-0.0024,0.0083,6
-0.0235,-0.0343,-0.0108,6
-0.0038,-0.0606,-0.015,6
0.0327,0.0405,-0.004,6
0.0163,0.0558,0.0025,6
-0.0124,0.0303,0.0164,6
-0.026,0.0106,0.0114,6
-0.0017,0.0014,0.0205,6
0.0126,0.0162,0.0105,6
0.0355,0.0207,-0.0268,6
0.0348,0.0298,-0.0113,6
0.0012,-0.0132,0.0081,6
-0.0316,-0.0176,0.003,6
-0.0102,-0.0298,-0.0107,6
-0.0102,-0.0298,-0.0107,6
0.0134,-0.009,-0.0064,6
0.0318,0.0195,0.0022,6
0.0163,0.0231,0.0003,6
-0.0179,0.0109,0.0138,6
-0.0179,0.0109,0.0138,6
-0.0123,0.0153,0.0233,6
-0.0256,0.0245,0.0183,6
-0.0011,0.0154,-0.0106,6
0.0447,-0.0024,-0.0128,6
0.0447,-0.0024,-0.0128,6
0.0105,-0.0026,0.0064,6
-0.0183,0.0205,0.0292,6
-0.0271,-0.0085,-0.0051,6
-0.0107,-0.0292,-0.0165,6
0.0086,-0.0048,0.0125,6
0.013,0.0093,0.0119,6
0.0123,0.0414,0.0008,6
0.0023,0.0071,-0.0035,6
0.0073,-0.026,-0.0174,6
-0.0069,-0.0063,0.0256,6
-0.0017,0.013,0.0158,6
0.0127,0.0549,-0.0168,6
-0.0023,0.0105,-0.0305,6
0.0073,-0.0181,-0.0111,6
-0.0207,-0.0546,-0.0014,6
-0.0152,-0.0622,-0.0105,6
-0.0007,-0.0269,-0.0022,6
0.0212,0.0479,-0.0234,6
-0.0077,0.0367,-0.0181,6
-0.0217,0.0071,0.0155,6
0.0072,0.012,0.0198,6
0.0119,0.0258,0.009,6
-0.0023,0.0154,-0.0001,6
-0.0019,-0.0169,-0.0133,6
-0.0064,-0.0297,-0.0262,6
-0.0062,-0.0056,-0.0254,6
0.0126,-0.0106,-0.0299,6
-0.0207,-0.0151,0.0034,6
-0.0249,-0.0093,0.0172,6
-0.0105,0.0149,0.0302,6
0.018,0.0291,-0.0048,6
0.0313,0.0377,-0.0055,6
0.025,0.0315,0.0329,6
0.0055,0.0165,0.0279,6
-0.0041,0.0062,-0.0102,6
-0.0088,0.0013,-0.0291,6
-0.0415,0.0341,0.0052,6
-0.05,0.0291,0.0105,6
-0.0148,-0.0084,0.0116,6
0.0187,-0.0397,-0.021,6
0.0278,-0.0336,-0.0206,6
0.0224,-0.0138,-0.0203,6
0.0121,0.0146,0.0029,6
-0.0257,0.0327,-0.0032,6
-0.0109,0.0133,0.0017,6
-0.0057,0.0088,-0.0022,6
0.0087,0.0092,-0.0107,6
0.013,0.009,-0.0106,6
0.0032,0.0181,0.0131,6
0.008,0.0081,-0.0014,6
-0.0112,0.0082,0.0078,6
0.0078,0.0085,-0.0204,6
-0.0018,-0.0329,0.009,6
-0.0018,-0.0329,0.009,6
-0.0064,-0.0458,-0.0003,6
-0.0015,-0.0299,-0.0099,6
0.0123,0.0414,0.0031,6
-0.0257,0.023,-0.0015,6
-0.0106,0.0038,0.0081,6
-0.0057,0.004,-0.0013,6
0.0134,0.014,0.0034,6
0.0225,0.0097,-0.0201,6
-0.0071,-0.0047,-0.0049,6
-0.0214,0.0046,-0.0244,6
-0.0401,0.0042,-0.0057,6
-0.0348,-0.0105,0.0131,6
-0.015,-0.0426,0.0127,6
0.0189,0.0122,0.0078,6
0.037,0.0212,0.0158,6
0.0358,0.0254,0.0001,6
0.0253,0.0195,-0.0323,6
0.0201,0.0092,0.002,6
-0.0228,0.0226,0.0202,6
-0.0353,0.032,-0.0174,6
-0.0057,0.0133,-0.0203,6
0.037,-0.0101,-0.0139,6
0.0455,-0.01,0.0008,6
0.0301,-0.024,0.0102,6
-0.0365,-0.0092,0.0003,6
-0.0311,0.0144,-0.0093,6
-0.04,-0.0003,0.0002,6
-0.0152,-0.0235,-0.0235,6
0.0133,0.0248,-0.0047,6
0.0081,0.0431,0.0089,6
0.0032,0.0426,0.0134,6
0.0032,-0.0145,0.0177,6
0.0409,-0.0086,0.0033,6
0.0254,0.0529,-0.011,6
0.0012,0.0604,0.0035,6
-0.0083,0.0163,0.0034,6
-0.0359,-0.0539,0.0088,6
-0.0154,-0.0789,0.0005,6
0.0089,-0.0286,0.0006,6
0.0313,0.0473,-0.0194,6
0.0211,0.0646,-0.0148,6
-0.0078,0.0333,0.0327,6
-0.0061,0.0091,0.0019,6
-0.0061,0.0091,0.0019,6
0.0083,0.0194,-0.0153,6
-0.0011,0.0194,-0.0005,6
0.0219,-0.0096,0.0045,6
-0.0267,-0.0039,-0.0072,6
-0.0267,-0.0039,-0.0072,6
-0.0212,0.0007,0.0024,6
-0.0207,-0.0086,0.0154,6
-0.0016,-0.0082,0.014,6
0.0121,0.0312,-0.015,6
0.0168,0.0261,-0.01,6
0.0164,0.0347,-0.0007,6
0.0157,0.0287,0.0036,6
0.0056,0.014,0.0081,6
-0.0037,0.0274,-0.0051,6
-0.0077,0.0031,-0.0089,6
-0.0077,0.0031,-0.0089,6
-0.0072,0.0036,-0.0175,6
-0.0021,-0.0009,-0.0115,6
0.0216,-0.0139,0.0031,6
0.0216,-0.0139,0.0031,6
-0.0025,-0.037,-0.0341,6
-0.0074,0.0062,-0.0147,6
-0.0172,0.0291,0.0129,6
0.0029,0.0141,-0.0128,6
0.0124,-0.0043,-0.0222,6
0.0166,0.0106,-0.0121,6
0.0161,0.0197,0.016,6
-0.0034,0.014,0.0244,6
0.0065,0.0094,-0.0185,6
0.0066,0.0235,-0.0078,6
0.0113,0.0282,0.0021,6
0.0113,0.0185,0.0022,6
0.0058,-0.0285,-0.0071,6
-0.0272,-0.0216,-0.0159,6
-0.0125,0.0264,0.0075,6
-0.0123,0.0449,-0.0073,6
-0.0027,0.0337,-0.0122,6
-0.0025,0.0091,-0.0066,6
0.0113,0.0094,0.0212,6
0.0203,0.0423,-0.0036,6
-0.0038,0.0509,-0.0035,6
-0.0174,0.0116,0.0071,6
-0.0073,-0.0446,0.0124,6
0.003,0.0012,-0.0061,6
0.0076,0.0105,-0.0014,6
0.0073,0.0194,0.0076,6
0.007,-0.0049,-0.017,6
0.0018,-0.0138,-0.0035,6
0.0063,0.0241,0.0047,6
-0.0081,0.0328,-0.0001,6
0.0063,0.0323,0.0191,6
-0.0034,0.0174,-0.0041,6
0.0108,0.0034,-0.0129,6
0.0245,0.0177,-0.003,6
-0.014,0.0125,0.0013,6
-0.0135,-0.0067,-0.0035,6
-0.027,-0.0015,-0.0026,6
-0.0168,-0.0101,-0.0019,6
0.0063,0.0142,-0.0311,6
0.011,0.0189,-0.0309,6
-0.0129,0.0091,-0.0115,6
-0.0311,-0.0003,0.0033,6
-0.0111,0.0048,0.0122,6
0.0266,0.0157,-0.0167,6
0.0356,0.0062,-0.0168,6
0.0247,0.0245,0.0108,6
0.0052,0.0237,0.0241,6
-0.0138,0.0277,0.0,6
0.0009,-0.01,0.0052,6
-0.0038,-0.0329,-0.0089,6
0.0012,-0.0317,-0.027,6
0.0105,-0.0261,0.0018,6
-0.0042,0.0122,0.0007,6
-0.0037,0.0341,0.0044,6
-0.0038,0.019,0.0322,6
0.001,0.0189,0.0318,6
0.015,0.0237,0.0171,6
0.0054,0.0193,-0.0197,6
-0.0087,-0.0093,0.0009,6
-0.0177,-0.0228,0.0058,6
-0.0316,-0.0223,-0.0088,6
-0.0024,0.0025,0.0093,6
-0.007,0.0122,0.013,6
0.0115,-0.0159,-0.0165,6
0.0061,0.0177,-0.0031,6
0.0014,0.0219,0.0012,6
0.0155,0.0074,0.011,6
0.0103,0.0165,0.0019,6
0.0053,0.0294,0.03,6
-0.0042,0.0188,0.0154,6
-0.0089,0.0137,-0.004,6
-0.0133,0.0088,-0.0037,6
0.0016,0.0148,-0.0203,6
0.002,0.0006,-0.0137,6
-0.0075,-0.0232,-0.0131,6
0.0159,-0.0369,-0.0086,6
0.0016,-0.0309,-0.0179,6
-0.0219,0.0259,0.0001,6
-0.0218,0.0204,0.0081,6
0.0163,0.0155,0.007,6
0.002,0.0063,-0.0116,6
0.0018,0.0064,0.0272,6
0.0015,0.0296,0.0389,6
-0.0084,0.0427,-0.0278,6
0.0109,0.0328,-0.0264,6
0.0108,-0.0051,-0.0016,6
0.0196,-0.0606,-0.0156,6
0.0003,-0.0492,-0.0057,6
-0.0095,0.0222,0.0166,6
-0.0048,0.0355,-0.0132,6
-0.019,0.0295,-0.0268,6
-0.0182,0.0146,-0.0066,6
0.0247,0.0234,-0.0115,6
0.0247,0.0234,-0.0115,6
0.029,-0.0054,-0.0059,6
0.0001,-0.0284,0.004,6
0.0047,-0.0038,0.0038,6
0.0005,0.0049,-0.0053,6
0.0005,0.0049,-0.0053,6
-0.0181,-0.0192,-0.0044,6
-0.013,-0.0415,0.0144,6
-0.0126,-0.0209,-0.0059,6
0.0153,0.0482,0.0096,6
0.0101,0.0141,0.0276,6
0.0196,0.0189,0.018,6
0.024,-0.0045,0.0183,6
0.0041,0.0005,-0.0005,6
-0.0055,0.0281,-0.0099,6
-0.0148,0.0229,-0.0183,6
-0.0188,-0.0101,-0.0026,6
-0.0224,-0.0138,-0.0013,6
-0.017,-0.0128,-0.0104,6
0.0343,-0.016,-0.0014,6
0.0139,0.0081,-0.0198,6
0.0185,0.0126,-0.0007,6
-0.0151,0.0305,0.0131,6
-0.0432,0.0146,0.0023,6
-0.0315,0.0054,-0.007,6
-0.0021,-0.0031,-0.0015,6
0.0167,-0.0026,0.0029,6
0.0444,0.0119,0.0113,6
0.0235,0.0393,-0.0092,6
-0.0097,0.0284,0.0009,6
0.0004,0.0049,0.0066,6
0.015,-0.0412,-0.0023,6
-0.004,-0.0394,-0.0114,6
0.0057,-0.0096,-0.0022,6
0.0193,0.0236,0.0104,6
0.0086,0.027,-0.0051,6
-0.0059,0.0304,0.0041,6
-0.015,0.0388,0.0226,6
-0.0051,0.0286,0.0029,6
0.0139,0.0051,-0.0201,6
0.009,-0.0131,-0.0277,6
-0.0051,-0.0034,-0.0025,6
-0.0286,0.001,0.0021,6
-0.0033,-0.0226,0.0056,6
0.0157,-0.0306,0.001,6
0.0155,-0.0293,0.0105,6
0.0196,-0.0188,-0.0137,6
0.019,0.0142,-0.0143,6
-0.0008,0.04,0.0131,6
0.0134,0.0059,0.027,6
0.0038,0.0106,0.0174,6
-0.0011,0.0104,-0.0066,6
-0.048,0.0571,0.0029,6
-0.0079,-0.0048,0.0087,6
0.0259,-0.0359,-0.0229,6
0.035,-0.0437,-0.0168,6
0.034,-0.0241,-0.0165,6
0.0136,0.0316,0.0019,6
-0.0339,0.0106,0.0098,6
-0.0376,-0.0173,-0.0088,6
-0.0224,-0.0116,-0.0083,6
-0.0171,0.0078,-0.0178,6
0.0253,0.017,-0.0138,6
0.0234,0.0201,0.0183,6
-0.0101,-0.0085,0.0042,6
-0.0052,-0.0036,0.009,6
-0.0283,0.0112,-0.0098,6
0.0056,0.03,-0.0181,6
0.0246,-0.0171,0.0121,6
0.0006,-0.053,0.0077,6
-0.0088,-0.0613,-0.0114,6
-0.0134,-0.0122,0.0069,6
0.0104,0.0347,-0.0139,6
0.0145,0.0419,0.0055,6
0.005,0.0032,0.0111,6
0.0003,0.0176,0.0103,6
0.0003,0.0269,-0.0138,6
-0.0042,0.0124,-0.0412,6
-0.0037,-0.0018,-0.0106,6
-0.0032,-0.0243,0.0133,6
-0.0222,-0.0095,-0.0019,6
-0.0027,0.0005,0.0067,6
0.021,0.0054,-0.0078,6
0.0059,-0.0177,-0.0115,6
0.0008,-0.022,0.0117,6
-0.0042,-0.0076,0.0193,6
-0.0038,0.0348,-0.0014,6
0.0059,0.0341,-0.0099,6
0.0238,0.0104,0.0195,6
0.0188,0.0056,0.0241,6
0.0231,0.0007,0.0047,6
-0.0052,0.0009,-0.0138,6
-0.0188,-0.0034,-0.0172,6
-0.0039,0.0019,-0.0062,6
-0.0039,0.0019,-0.0062,6
0.0101,0.0114,0.003,6
0.0143,0.0157,-0.0116,6
-0.0097,0.0015,-0.012,6
-0.013,0.0158,0.0111,6
0.0061,0.0109,0.0014,6
0.0245,0.0105,0.0057,6
0.0281,0.0055,0.0143,6
0.0037,0.0194,0.0269,6
-0.0053,0.0278,-0.0106,6
0.0187,-0.0103,-0.009,6
0.0181,-0.0379,-0.0036,6
-0.001,-0.047,0.006,6
-0.0056,-0.0364,0.0062,6
0.0133,0.035,-0.0145,6
-0.0109,0.0385,-0.0152,6
0.0035,0.0329,-0.0247,6
-0.0108,0.0269,0.004,6
-0.0151,0.0173,0.0134,6
0.0091,0.0126,-0.0056,6
0.0187,-0.0103,-0.009,6
2.2338,0.6202,-0.0873,2
1.0977,-0.2214,-0.435,2
-0.4949,-0.2856,-1.4916,2
-1.3084,0.052,-2.3537,2
-1.5021,0.3623,-1.9508,2
-1.2512,0.4027,-0.4541,2
-0.9115,0.1169,0.8477,2
-0.0714,0.0003,-0.2105,2
0.2905,-0.1547,-0.9231,2
1.0877,-0.4344,-1.7521,2
1.8486,-0.7866,-1.1255,2
2.4333,-0.2456,-0.4644,2
2.2309,0.3205,-0.0278,2
1.9541,0.2878,-0.1165,2
1.6616,-0.6643,-0.8192,2
1.3839,-1.8038,-0.9342,2
1.6794,-2.8529,-0.5586,2
2.6972,-3.5569,-0.8314,2
2.6972,-3.5569,-0.8314,2
3.2606,-4.143,-1.1891,2
3.2809,-4.4512,-1.7556,2
2.0837,-3.6347,-3.84,2
1.7435,-1.8456,-4.2042,2
2.379,-1.5278,-2.5964,2
3.4118,-0.8415,-0.5482,2
2.7073,-0.1341,1.9649,2
2.7361,-0.023,2.9714,2
2.0004,-1.3537,2.1029,2
0.0361,-2.2644,1.5749,2
-2.8497,-2.8236,1.0525,2
-3.9866,-2.0567,-1.8673,2
-4.5042,-1.1887,-5.6665,2
-4.5042,-1.1887,-5.6665,2
-3.305,-0.9908,2.03,2
-2.5501,-0.4761,2.8327,2
-3.7477,0.3389,2.7725,2
-4.1734,0.4117,2.525,2
-3.8266,0.3639,0.0537,2
-2.2252,-0.3824,0.0035,2
-2.1941,-0.9758,0.9508,2
-2.4866,-0.5246,1.1758,2
-2.7662,0.7462,0.3926,2
-3.0683,2.409,1.0996,2
-3.0683,2.409,1.0996,2
-2.4868,2.7836,1.6734,2
-1.063,2.538,1.4941,2
0.6724,1.6617,0.5235,2
2.2431,-0.286,-0.4172,2
1.1309,-0.533,0.8194,2
-2.4101,-2.3273,-0.5246,2
-1.866,-6.6147,-3.1733,2
-0.2999,-7.0268,1.187,2
0.1489,-4.0181,0.0015,2
0.1489,-4.0181,0.0015,2
0.9241,-2.3361,0.2239,2
1.2189,-2.3069,0.294,2
-0.3713,-1.0844,-0.1035,2
-0.4519,-1.0703,0.021,2
-0.4363,-1.0513,0.4007,2
-0.3155,-0.7307,0.6084,2
-0.2557,0.0182,0.6638,2
0.0805,0.8484,0.8233,2
0.2486,1.4721,0.6504,2
0.1007,1.293,0.5022,2
0.0244,0.9768,0.378,2
0.4326,0.3735,-0.2154,2
0.8162,0.3554,-0.8019,2
1.3376,0.6806,-2.0798,2
1.3376,0.6806,-2.0798,2
1.5239,1.0977,-1.7465,2
1.4622,1.4636,-0.832,2
1.5695,1.3943,0.5508,2
1.0791,0.8832,1.3862,2
0.0208,0.0341,0.3989,2
-1.4236,-1.2144,-2.565,2
-1.3988,-1.5521,-1.7704,2
-0.2969,-0.628,-0.9612,2
1.192,-0.0234,-0.8571,2
1.192,-0.0234,-0.8571,2
2.4894,0.2126,-0.2475,2
3.1074,0.4967,0.4251,2
2.7209,0.3127,0.1972,2
1.3493,-1.1534,-0.3329,2
0.901,-2.1786,-0.6337,2
0.8105,-3.0519,-0.9323,2
1.1729,-3.8024,-1.0003,2
2.4747,-3.738,-0.4673,2
3.2729,-3.7574,-0.633,2
2.3236,-3.6295,-3.8881,2
1.7589,-2.3121,-4.8852,2
2.0964,-0.8863,-3.9124,2
4.1618,-0.8338,-0.3574,2
4.1618,-0.8338,-0.3574,2
4.0473,-0.1825,1.5121,2
2.8146,0.3703,2.9194,2
3.0932,0.0104,3.0353,2
1.8861,-2.451,1.2301,2
-0.7984,-2.9954,1.2827,2
-3.5193,-2.3654,1.8715,2
-3.8252,-1.7644,-1.0117,2
-4.2597,-1.3274,-4.8105,2
-0.134,-1.2833,-0.616,2
-0.134,-1.2833,-0.616,2
-3.5835,-0.5597,1.9846,2
-4.8065,-0.1615,1.9679,2
-2.1515,-0.3209,1.1159,2
-2.1515,-0.3209,1.1159,2
-1.0906,-0.9209,1.2849,2
-1.7655,-1.4595,1.2739,2
-2.9595,-0.7843,0.4504,2
-3.499,0.5895,0.637,2
-3.5027,2.129,1.0785,2
-3.3247,3.0372,1.2067,2
-2.6091,3.143,0.7012,2
-1.2512,2.8201,-0.6277,2
0.744,2.5716,-0.5581,2
1.4672,2.0784,-0.426,2
1.4672,2.0784,-0.426,2
0.5791,1.3228,1.5054,2
1.5413,0.8244,1.27,2
-1.2498,-5.1871,-4.8874,2
0.3128,-10.24,-0.8637,2
1.4663,-6.1126,-1.9128,2
0.8456,-1.348,-0.8318,2
-0.6969,-0.0351,-0.7446,2
-1.484,-0.0446,-0.2529,2
-1.2992,-1.4467,0.5627,2
-1.2855,-1.8026,0.7735,2
-1.035,-2.6223,1.3691,2
-0.8424,-2.905,1.8398,2
-0.9209,-0.7849,1.8404,2
-0.9209,-0.7849,1.8404,2
-0.3674,-0.3094,1.365,2
0.658,0.0941,0.2947,2
1.6167,0.1093,-0.8224,2
1.7744,0.0542,-1.1783,2
1.7157,-0.9183,-1.8654,2
0.9673,-0.2989,-1.2638,2
-0.0451,0.4807,-0.7289,2
-0.5968,1.041,-0.095,2
-0.9426,1.5151,1.0183,2
-1.1274,1.6682,1.8066,2
-1.1274,1.6682,1.8066,2
-0.9926,1.4362,1.7957,2
-0.4402,0.9397,1.1061,2
0.685,0.7182,-0.4291,2
0.3354,-0.01,-3.2724,2
-0.1828,-0.0658,-3.4539,2
0.6997,0.387,-1.7538,2
1.4183,0.6298,0.1948,2
1.6799,0.18,0.7171,2
1.4001,0.356,0.0867,2
1.3403,0.5445,-0.1005,2
1.3085,0.3293,-0.5669,2
2.1527,-0.8281,-0.6323,2
2.7665,-0.7768,-0.2777,2
2.1318,-0.4954,-0.7463,2
2.0898,-1.4139,-1.3773,2
2.2686,-1.4028,-1.1666,2
2.3837,-1.1118,-0.1967,2
3.6719,-2.3056,-0.4316,2
3.4896,-1.9391,-0.2948,2
4.1943,-1.9015,-0.468,2
4.0638,-0.7258,-0.6409,2
2.8907,0.6242,-1.5008,2
1.7174,0.3787,-2.2795,2
0.5216,-1.1508,-1.0781,2
0.5216,-1.1508,-1.0781,2
-0.6492,-1.831,0.0672,2
-1.1204,-2.3811,0.6819,2
-1.6339,-3.0338,1.7562,2
-2.601,-3.3502,2.9485,2
-3.0108,-2.9346,2.9837,2
-2.869,-2.255,2.5327,2
-2.462,-1.3326,1.8793,2
-2.241,-1.1221,1.6226,2
-1.9658,-1.0307,1.2732,2
-1.9658,-1.0307,1.2732,2
-2.0418,-0.8592,0.7136,2
-3.0808,-0.3625,0.3248,2
-3.5413,0.5939,1.0817,2
-3.2477,1.3122,1.1671,2
-3.0235,1.1428,0.845,2
-3.2369,0.5043,0.584,2
-3.2696,0.466,0.5257,2
-2.9853,0.8182,-0.135,2
-2.4952,0.4121,-0.2664,2
-2.4952,0.4121,-0.2664,2
-2.0667,-0.0278,-0.3275,2
-1.5086,-0.3847,-0.4383,2
1.9487,-1.3294,-3.4253,2
2.6098,-1.3039,-3.946,2
5.1297,-1.1031,-4.5998,2
8.5553,-0.3272,-2.7411,2
8.4532,0.3947,-1.1584,2
4.152,1.2141,-0.828,2
1.3391,1.768,0.4213,2
0.1852,-1.3099,1.7566,2
-0.2806,-2.9636,2.2032,2
-0.5944,-6.0085,1.7061,2
-2.1464,-8.6535,-2.1752,2
-4.4286,-0.3844,-0.9731,2
-4.4286,-0.3844,-0.9731,2
-5.3341,0.7891,0.213,2
-5.4347,0.2227,1.0571,2
-4.88,-0.8337,1.5167,2
-4.4084,-1.2895,2.3032,2
-4.0041,-1.534,2.6226,2
-2.3159,-2.0569,2.6244,2
-0.9751,-0.9121,1.9069,2
0.458,0.266,1.4685,2
0.6908,0.3185,1.5199,2
1.4031,0.4655,1.4259,2
2.4132,0.7098,1.1452,2
1.634,0.1701,-1.1646,2
1.6132,0.1313,-1.2556,2
1.6367,-0.0938,-1.4156,2
1.556,-0.1781,-1.5221,2
1.1849,0.1551,-1.3865,2
0.488,-0.3322,-0.5632,2
0.4199,-0.6477,-0.6102,2
0.5024,-0.6045,-0.9474,2
0.5619,-0.3076,-1.2338,2
0.5543,-0.1544,-1.038,2
1.0931,-0.2905,-0.4076,2
1.5424,-0.0389,-0.4728,2
1.5424,-0.0389,-0.4728,2
1.7434,0.0157,-0.614,2
1.8947,0.0432,-0.6309,2
2.041,-0.5082,-0.6822,2
2.0423,-1.7018,-0.9776,2
1.9765,-2.3284,-1.1426,2
2.1364,-2.5493,-1.0734,2
2.4216,-2.836,-1.2326,2
3.2456,-2.3919,-1.984,2
3.4775,-2.1652,-2.2681,2
3.0988,-1.0599,-3.0106,2
3.0988,-1.0599,-3.0106,2
3.1522,-0.503,-2.8748,2
4.2459,-1.9772,-0.2062,2
4.2459,-1.9772,-0.2062,2
3.9628,-2.4222,0.362,2
2.7293,-2.4865,1.0281,2
0.7787,-2.9114,1.8706,2
-1.9429,-4.879,1.9873,2
-5.0142,-6.3467,1.1292,2
-4.5021,-3.651,-1.9982,2
-3.3907,-1.7297,-0.3003,2
-0.0198,-0.6052,-0.7835,2
2.3857,-0.37,0.3215,2
-3.5423,0.1472,0.9892,2
-3.5423,0.1472,0.9892,2
-3.9784,0.1951,0.1381,2
-4.3518,0.2507,0.0991,2
-5.4656,0.7755,1.1004,2
-5.5085,0.9029,2.035,2
-4.8122,1.0151,2.0193,2
-4.2803,1.3548,1.4113,2
-3.9597,2.0718,0.5992,2
-2.8354,2.6389,0.3235,2
0.0238,2.3044,1.6362,2
0.0238,2.3044,1.6362,2
1.4224,1.3962,0.8173,2
2.3995,0.3892,-1.088,2
-2.436,-4.2944,0.2066,2
-2.436,-4.2944,0.2066,2
-2.5328,-6.7776,-3.7051,2
-0.3531,-5.7932,1.2512,2
-1.395,-3.5518,0.5509,2
-0.6864,-2.19,0.8193,2
1.2306,-3.6111,0.8478,2
2.3305,-5.356,-0.6509,2
2.0674,-3.7459,-1.6512,2
-0.2395,-0.7812,-0.9342,2
-1.8474,0.3421,0.3652,2
-1.4078,-0.0227,1.0855,2
-1.4078,-0.0227,1.0855,2
-0.6642,-0.2739,1.054,2
-0.0253,-0.0822,0.8973,2
0.6162,0.6232,0.7842,2
0.8656,1.1302,0.4189,2
0.5694,0.896,-0.1524,2
0.5135,0.6398,-0.9611,2
0.5314,0.5774,-1.2756,2
1.2159,0.807,-2.0416,2
1.8054,1.9103,-0.2891,2
1.8054,1.9103,-0.2891,2
1.8709,2.0051,1.0455,2
2.032,1.4516,1.5304,2
1.8243,0.4806,0.9124,2
0.0278,-0.8175,-2.6765,2
-1.092,-1.2786,-1.6569,2
-1.3313,-1.1689,-1.086,2
-0.5529,-0.4762,-1.1485,2
2.0283,0.246,-0.9271,2
3.4019,0.4052,-0.4839,2
3.8,0.9447,0.1403,2
3.1119,1.2392,0.8121,2
1.8397,-0.2909,0.6543,2
1.324,-3.8518,-0.0885,2
1.324,-3.8518,-0.0885,2
1.3884,-5.7306,-0.1318,2
1.5934,-6.5299,-0.434,2
1.8877,-6.192,-1.6718,2
3.7557,-3.9813,-3.667,2
3.9248,-2.6268,-3.7227,2
3.7576,-1.4081,-2.8442,2
3.5552,-0.2648,-0.8399,2
3.3981,-0.4015,0.2171,2
1.829,-1.3984,2.1418,2
1.829,-1.3984,2.1418,2
0.1589,-2.1381,2.1575,2
-1.1739,-2.8062,1.3821,2
-7.4077,-3.4877,-6.1398,2
-8.2814,-3.2546,-5.1474,2
-7.3713,-0.9545,1.8521,2
-4.8331,-0.1403,3.5555,2
2.65,-0.1283,-0.6766,2
-0.5371,-0.5781,3.2223,2
-3.1247,0.6048,0.0965,2
-2.4784,0.392,-1.6232,2
-2.4784,0.392,-1.6232,2
-2.27,0.2149,0.3133,2
-2.9036,-0.395,1.4891,2
-2.9125,-0.4202,1.3547,2
-3.2864,0.1893,0.5802,2
-3.9152,1.1464,0.0851,2
-4.2254,2.4781,0.4656,2
-3.9682,3.8429,0.7145,2
-1.8851,2.857,0.4107,2
0.3831,1.3414,-0.251,2
0.4468,0.3684,0.8516,2
0.1323,0.061,1.8594,2
1.8152,-0.8257,-0.9956,2
2.3729,-7.4928,-0.8743,2
2.3729,-7.4928,-0.8743,2
4.2885,-9.7713,-1.6591,2
2.6796,-6.3479,-1.4945,2
-2.2325,-0.8274,-0.2119,2
-2.2538,-0.7911,-0.2416,2
-2.5368,-1.0692,-0.9017,2
-3.0057,-1.4822,-1.0868,2
-3.0132,-2.0788,-0.8508,2
-2.7201,-2.3638,-0.1895,2
-2.1466,-1.102,0.6106,2
-0.8108,0.2919,0.7117,2
0.4977,0.7935,0.6348,2
1.4555,1.144,0.451,2
2.1547,1.4267,0.2416,2
2.9497,1.5347,-0.2701,2
2.9497,1.5347,-0.2701,2
2.8129,1.5215,-0.5802,2
2.2379,1.3341,-0.8016,2
1.2874,1.5337,-1.0854,2
1.0041,1.6574,-0.8257,2
1.0013,0.8496,-0.234,2
1.1078,-0.1701,0.2301,2
0.511,-1.1352,-0.0762,2
-0.8064,-1.5205,-3.5577,2
-0.1107,-0.7188,-1.7991,2
0.312,-0.3362,-0.8546,2
0.6381,0.0885,-0.4809,2
0.8534,0.2424,-0.7698,2
1.8784,0.1627,-1.3471,2
3.5043,0.1665,-0.7457,2
3.4355,-0.319,0.0477,2
3.0719,-0.5794,0.5361,2
2.3404,-1.5274,0.846,2
1.0663,-3.0757,0.2598,2
-0.3673,-5.3452,-0.9447,2
-1.0923,-6.3045,-1.9092,2
-1.0923,-6.3045,-1.9092,2
1.0786,-4.6506,-2.467,2
4.397,-1.2201,-3.707,2
4.397,-1.2201,-3.707,2
4.9689,-0.0788,-2.381,2
5.3439,0.0071,-0.3973,2
4.8131,0.6335,2.7616,2
3.4525,0.4945,3.4257,2
1.9956,-0.3181,3.0061,2
-0.1484,-1.9961,1.6918,2
-1.6178,-3.0703,1.0947,2
-4.3891,-5.05,-3.3885,2
-7.082,-3.3191,-4.7355,2
-1.6727,-0.9496,0.9508,2
-1.6727,-0.9496,0.9508,2
-1.0404,-0.6003,2.3988,2
-3.594,-0.6119,3.1566,2
-5.4994,-0.4178,1.0042,2
-4.4232,0.1627,-0.7373,2
-3.0509,0.2021,0.2723,2
-2.9734,-0.113,0.6873,2
-3.2692,-0.8345,0.6533,2
-2.9403,-0.1285,0.2009,2
-3.5092,1.6854,0.4148,2
-2.7893,2.4811,1.184,2
-2.7893,2.4811,1.184,2
-1.9345,2.7413,1.2826,2
1.8485,0.8461,0.1133,2
2.04,0.4815,-0.1335,2
0.6872,-0.3379,0.0364,2
-0.4827,-0.4348,0.8572,2
-2.2051,-0.7598,-3.7306,2
0.1338,-8.2082,0.3927,2
1.0275,-9.3664,1.3814,2
0.8175,-5.6857,1.1802,2
-0.1385,-0.4292,0.9825,2
-0.1914,1.1153,0.853,2
-0.0348,-0.9418,0.1723,2
0.1338,-1.4065,-0.0665,2
0.0479,-3.0957,-0.5785,2
-0.1542,-3.0794,-0.5409,2
-0.7987,-1.807,-0.2258,2
-1.3997,0.0915,-0.3322,2
-1.4426,0.8984,-0.3072,2
-1.4202,0.9734,-0.2543,2
-1.4875,0.7872,0.0975,2
-1.0936,0.5305,0.6096,2
-0.4826,0.1264,0.6726,2
0.5843,0.5108,-0.1767,2
0.5843,0.5108,-0.1767,2
1.3827,0.9016,-0.6749,2
2.6735,1.7746,-0.4716,2
2.5959,1.5786,-0.3612,2
2.2125,0.7649,0.2566,2
1.8705,0.2607,0.1962,2
0.6446,-0.8971,-1.7288,2
-0.156,-1.2531,-2.7754,2
-0.5062,-0.6473,-0.7889,2
-0.1089,-0.3068,0.451,2
-0.0407,-0.3152,-0.0183,2
-0.0474,-0.3227,-0.2961,2
1.9736,-0.4733,-0.7687,2
3.5108,-0.3149,0.0787,2
3.4708,-0.6445,0.4587,2
2.1333,-1.366,0.547,2
0.5513,-3.0042,0.1594,2
0.3188,-3.6107,-0.0918,2
-0.4649,-6.0477,-1.0797,2
1.9424,-6.7211,-1.0961,2
3.0214,-6.0889,-1.3544,2
2.77,-3.5756,-3.2927,2
2.1507,-1.5789,-5.1328,2
2.7964,-0.494,-2.5256,2
3.7365,-0.4247,0.8002,2
3.6418,-0.2204,1.3498,2
3.0609,0.3914,2.2456,2
2.6204,1.2503,2.0686,2
2.6427,0.8433,1.6469,2
0.4494,-1.6837,0.5029,2
-2.7254,-2.71,0.0482,2
-6.0203,-3.206,-3.3052,2
-5.0587,-1.1881,-1.4907,2
1.3167,-0.6049,-0.04,2
-1.8599,-1.0484,2.8593,2
-3.6422,-1.1551,3.7001,2
-5.4729,-0.5569,3.0076,2
-4.7831,0.5205,-0.4287,2
-4.7831,0.5205,-0.4287,2
-2.8659,-0.4526,1.2894,2
-2.815,-1.0634,1.2644,2
-2.8043,-1.5004,0.434,2
-3.0792,-0.5832,0.0973,2
-3.6905,1.168,0.4299,2
-3.1164,2.9602,1.4567,2
-2.5568,2.9949,1.4477,2
-1.0428,2.7301,0.953,2
1.567,1.4617,-0.4404,2
1.7153,0.2325,-0.3327,2
1.7153,0.2325,-0.3327,2
-1.5031,-3.2231,-1.3523,2
-0.3087,-5.9058,-4.2797,2
-0.2355,-6.2746,0.4006,2
-0.2355,-6.2746,0.4006,2
-1.7867,-3.1893,0.1612,2
-1.9548,-0.9316,0.8859,2
-1.3294,-0.5477,1.2801,2
-0.6735,-1.9438,0.3395,2
-0.4351,-2.4025,-0.1215,2
-0.2743,-2.1198,0.1804,2
-0.1576,-1.8148,0.2312,2
0.2201,0.0523,-0.0028,2
0.7109,1.3377,0.0115,2
0.9053,1.4344,0.1763,2
0.8363,1.2279,0.1853,2
0.6174,0.4073,0.2194,2
0.5816,0.1524,0.2385,2
0.3427,0.1249,-0.0184,2
0.0101,0.6483,-1.7598,2
0.1139,0.7563,-2.9407,2
0.4289,0.5945,-2.7588,2
1.0057,0.6085,-0.9989,2
1.0184,0.8692,1.0146,2
0.2495,0.6357,0.2347,2
0.2495,0.6357,0.2347,2
-0.0959,-0.8595,-3.1725,2
1.1059,-1.1396,-1.2389,2
1.1059,-1.1396,-1.2389,2
1.4033,-0.318,-0.6214,2
1.4033,-0.318,-0.6214,2
-5.0664,-3.9265,3.1564,1
-5.5955,-3.2825,3.6232,1
-3.9499,-2.0161,1.9118,1
-1.9099,-1.3519,-0.0245,1
0.096,-0.387,-0.0941,1
0.1264,0.8348,1.3347,1
-1.4581,1.4053,1.339,1
-4.3818,0.5936,1.55,1
-4.3818,0.5936,1.55,1
-4.9702,0.9178,1.9869,1
-5.3943,1.6649,1.9395,1
-6.072,2.3596,1.2726,1
-6.0357,2.2241,0.228,1
-5.4273,1.7542,-0.2141,1
-3.1829,0.7542,-1.4115,1
-0.1925,-1.0392,-2.738,1
5.2745,-3.0434,-3.3592,1
11.7096,-2.5004,-0.7728,1
10.6991,-0.5194,-3.2551,1
7.1985,2.5203,-4.6992,1
1.6803,-1.1383,0.5641,1
-1.0396,-5.7138,2.2646,1
-1.509,-6.0755,2.3392,1
-4.1291,-4.9643,-0.0953,1
-6.9627,-3.1765,-2.0427,1
-6.8621,-0.0094,0.476,1
-5.3174,1.2662,2.0331,1
-3.3581,-1.1079,2.3593,1
-2.804,-2.308,2.9822,1
-2.3182,-2.3335,2.8975,1
-1.6856,-1.0288,2.6187,1
-0.4064,-0.2064,1.9871,1
1.0313,-0.1035,0.8351,1
1.0313,-0.1035,0.8351,1
1.4906,0.0658,-0.0118,1
1.2781,0.2899,-0.8007,1
0.5037,0.9216,-0.6132,1
-0.482,0.6339,0.4279,1
-0.6211,0.0976,0.6288,1
-0.0342,-0.5728,0.4625,1
0.9334,-0.1193,-0.2559,1
1.3939,0.7393,-0.4654,1
1.5355,0.919,-0.4249,1
1.437,0.2902,-0.6819,1
1.4989,-0.5359,-1.6228,1
1.7947,-0.7742,-3.084,1
3.2248,-0.5766,-2.1152,1
3.2248,-0.5766,-2.1152,1
3.7276,-0.5293,-0.8524,1
3.9795,-0.3758,0.0623,1
4.3015,-0.2394,-0.1348,1
5.0424,-0.6492,-1.229,1
4.9976,-2.0655,-1.2391,1
4.7559,-2.61,-0.6579,1
4.2798,-1.6758,-0.3368,1
3.8503,-0.8393,-1.0905,1
1.8142,0.2244,-3.1935,1
1.8142,0.2244,-3.1935,1
0.7926,-0.6156,-4.9723,1
0.2898,-2.3931,-2.4755,1
-0.5528,-4.8559,-0.5827,1
-3.7209,-5.4532,1.6214,1
-5.1814,-3.4805,3.2738,1
-5.7217,-2.0937,4.0481,1
-5.3201,-1.3176,4.4556,1
-2.8593,-1.3253,2.1421,1
0.8481,-0.3959,-0.8287,1
1.8495,0.6375,-0.2058,1
0.6176,1.2799,0.1557,1
-3.1785,0.6117,1.0064,1
-4.1949,0.5782,1.9978,1
-4.4509,0.7405,2.094,1
-5.2776,1.9645,2.1581,1
-5.8009,2.3295,1.5913,1
-6.3262,2.3751,1.0404,1
-6.9265,2.1886,0.3968,1
-5.1353,0.3957,-1.3668,1
-3.3232,-1.2058,-2.4774,1
0.3111,-2.7913,-4.2027,1
5.4108,-3.5177,-4.175,1
9.6066,-1.5165,-1.6159,1
10.7735,0.849,-4.0681,1
10.7735,0.849,-4.0681,1
9.1288,1.7629,-3.6199,1
2.8784,-1.6837,0.5303,1
-0.1521,-4.7259,3.2831,1
-2.3595,-3.461,1.6444,1
-4.2212,-2.6786,0.089,1
-5.3842,-0.6874,-3.2144,1
-4.4599,1.283,0.0964,1
-4.4814,-0.0278,0.9199,1
-3.8224,-1.3382,1.325,1
-3.8224,-1.3382,1.325,1
-3.2543,-1.8647,1.5185,1
-2.2996,-1.4669,2.4371,1
-1.5841,-0.7752,2.7982,1
-0.9109,-0.0228,2.2502,1
0.366,0.3046,1.4734,1
2.3004,-0.2094,0.907,1
3.9813,-0.2057,0.6136,1
3.9024,0.0858,0.5143,1
2.0253,1.827,-0.212,1
1.2099,0.8694,-0.7273,1
0.7415,-0.2508,-1.4886,1
-0.0028,-0.4209,-2.2418,1
-0.3898,0.1674,-2.1297,1
0.5146,0.1139,-0.8176,1
0.5146,0.1139,-0.8176,1
1.7818,0.2075,-0.0578,1
2.9818,0.6409,-0.5767,1
4.3032,0.3857,-1.672,1
4.4322,0.2802,-1.9349,1
4.1211,0.014,-0.9913,1
3.9791,-0.5448,-0.0218,1
4.1118,-0.9799,-0.161,1
4.3637,-1.2242,-0.9763,1
5.7983,-3.0224,-1.6413,1
5.7983,-3.0224,-1.6413,1
5.1447,-1.7402,-1.4489,1
5.0683,-0.66,-1.0589,1
4.5191,0.2842,-1.2477,1
2.4316,0.4575,-3.5632,1
1.5969,-0.8377,-3.9778,1
0.6859,-4.6694,-1.5591,1
-1.3642,-6.6092,0.6662,1
-4.8036,-5.844,3.0262,1
-5.7314,-3.8121,4.3644,1
-5.8053,-2.0047,4.7224,1
-3.5473,-0.6557,1.8088,1
-0.1647,-0.6249,-0.9165,1
2.0617,0.1728,-0.6127,1
1.1509,1.597,0.1822,1
1.1509,1.597,0.1822,1
-2.4972,0.9324,0.5775,1
-4.0831,0.4376,1.515,1
-4.9739,1.3387,2.5189,1
-5.8946,2.291,2.364,1
-6.3312,2.4275,1.6738,1
-6.8123,2.2718,0.8195,1
-6.0097,1.5763,-0.3104,1
-3.6863,-0.4177,-2.0737,1
0.1927,-2.6896,-3.9315,1
1.4356,-3.0263,-4.1083,1
5.3777,-3.2957,-3.7557,1
8.0541,-1.6264,-2.3768,1
8.9157,0.1786,-2.5679,1
9.1369,2.0131,-2.4592,1
4.6481,0.8377,-0.1189,1
0.5946,-2.0265,3.0806,1
-0.1106,-3.4912,3.5541,1
-1.2873,-4.4097,1.7588,1
-4.9768,-3.1921,-6.5884,1
-4.1854,0.0821,-1.8689,1
-4.9467,0.6274,-0.5405,1
-4.7462,-0.9829,0.749,1
-3.7341,-1.5053,1.62,1
-3.7341,-1.5053,1.62,1
-3.4237,-0.9554,3.094,1
-3.064,-0.4144,3.467,1
-2.4051,-0.1937,2.8825,1
0.0483,-0.2889,1.5673,1
1.4869,-0.3344,1.4809,1
2.9376,-0.0312,1.4571,1
4.0166,0.7724,1.141,1
3.9532,1.4286,0.0096,1
2.3113,1.0485,-1.4193,1
2.3113,1.0485,-1.4193,1
1.756,-0.0055,-2.1164,1
1.2544,-0.3536,-2.755,1
0.6586,0.1012,-2.5927,1
0.9678,0.3859,-0.3952,1
1.2601,0.1813,0.3529,1
1.5056,0.0605,0.1644,1
2.3607,-0.2707,-1.1386,1
3.9503,-0.3617,-1.4461,1
4.1268,-0.0321,-0.6879,1
4.1268,-0.0321,-0.6879,1
3.5789,-0.5871,-0.7403,1
3.0475,-0.8553,-1.2111,1
4.3013,-2.3591,-0.5423,1
4.3013,-2.3591,-0.5423,1
4.9462,-2.8497,-0.2737,1
4.9626,-1.8861,-0.7391,1
5.2721,-0.4676,-1.5468,1
4.4983,0.6287,-1.9672,1
1.8356,0.5216,-3.9043,1
0.9535,-1.5775,-3.2048,1
0.3058,-3.6677,-1.8209,1
-1.0135,-6.0834,-1.0117,1
-3.8211,-5.8917,1.5579,1
-5.8117,-2.4587,4.83,1
-5.8117,-2.4587,4.83,1
-5.218,-1.6697,5.6642,1
-3.556,-1.0377,4.6008,1
0.5007,-0.515,-0.3927,1
1.0762,0.622,0.5575,1
-0.6811,1.0548,0.7334,1
-3.9818,0.5994,1.1561,1
-4.7191,0.9323,2.1453,1
-4.7766,2.1598,2.3429,1
-5.1908,2.3825,1.5088,1
-5.1908,2.3825,1.5088,1
-5.7503,1.983,1.1301,1
-6.0998,1.5707,0.7938,1
-2.9565,-0.6834,-2.0694,1
-2.9565,-0.6834,-2.0694,1
0.982,-2.535,-3.3955,1
5.1578,-3.6432,-3.5635,1
9.4253,-2.8124,-1.8949,1
10.5791,-0.6936,-3.8084,1
7.786,1.4028,-4.4491,1
2.4011,0.3372,-0.6182,1
-1.8622,-0.4702,2.7559,1
-2.6616,-2.4961,3.0478,1
-2.6228,-4.1925,2.4976,1
-3.5194,-5.9359,-1.2547,1
-3.5194,-5.9359,-1.2547,1
-2.1473,-1.3356,-1.9411,1
-2.2223,1.1065,-2.4836,1
-3.4161,0.8458,-1.1016,1
-4.9967,-0.2688,1.0475,1
-4.7477,-0.6905,1.5727,1
-2.8501,-1.439,2.94,1
-2.1185,-1.4925,4.2038,1
-2.1067,-0.6235,3.5423,1
0.3454,0.1507,1.9877,1
0.3454,0.1507,1.9877,1
2.1186,-0.1257,1.27,1
2.779,0.2515,0.6968,1
1.613,1.1117,-1.3391,1
1.613,1.1117,-1.3391,1
1.1667,0.7463,-1.974,1
0.5947,-0.3488,-2.678,1
0.4772,-0.279,-2.5047,1
0.2795,0.5622,-1.1263,1
0.7977,0.3252,-0.2692,1
1.327,-0.0287,-0.654,1
2.9869,-0.3037,-1.859,1
4.4246,-0.2709,-1.3428,1
5.1425,0.0241,-0.3679,1
5.1433,-0.6757,-0.1361,1
5.1433,-0.6757,-0.1361,1
3.6672,-1.0211,-1.1776,1
3.1237,-1.0933,-1.6965,1
3.1589,-1.3421,-1.2027,1
4.1665,-2.5033,-0.4341,1
3.9306,-1.204,-0.7282,1
4.3697,-0.2617,-1.3605,1
4.633,-0.2569,-1.3677,1
2.8159,1.0469,-2.3689,1
1.4463,-0.2396,-4.0307,1
1.3465,-0.7148,-3.8205,1
0.7659,-2.4216,-2.3457,1
-0.5596,-4.7864,-1.1009,1
-2.6166,-5.7097,0.4856,1
-5.0865,-4.2234,3.4459,1
-5.6426,-3.1517,4.888,1
-5.2902,-2.866,4.8567,1
-2.8016,-2.069,1.7485,1
0.6164,-0.2733,-0.8041,1
0.1295,0.4994,0.8309,1
-1.5108,1.1566,1.3166,1
-4.222,0.668,2.2527,1
-4.7226,1.0828,2.4985,1
-5.1576,1.8952,2.1022,1
-5.1576,1.8952,2.1022,1
-5.5187,2.1436,1.81,1
-5.8193,2.1687,1.2922,1
-5.9133,1.7765,0.5169,1
-4.6306,0.1223,-1.1215,1
-1.2219,-1.814,-2.4358,1
4.8809,-3.4917,-3.082,1
9.2295,-3.1291,-1.9301,1
9.8083,-1.0775,-1.6691,1
9.4307,2.3769,-4.8746,1
8.2774,2.3207,-4.2776,1
3.2032,-0.0188,-0.3485,1
-0.998,-3.8507,2.786,1
-4.5805,-4.6468,0.5787,1
-5.419,-4.497,-0.6743,1
-8.6113,-3.5162,-5.9066,1
-4.287,-0.5145,0.311,1
-3.0816,0.2648,1.3526,1
-1.9705,-0.3412,1.8827,1
-1.701,0.1085,2.1158,1
-2.0039,0.2951,2.2767,1
-1.6166,0.3357,2.7908,1
-1.303,-0.2174,2.8271,1
-0.4694,-0.2576,2.1479,1
0.6777,0.0882,1.429,1
1.0446,0.0323,1.2734,1
2.0051,-0.0916,0.9375,1
2.3466,0.1727,0.6242,1
1.5986,0.5948,-0.1826,1
0.7813,0.0267,-1.3029,1
0.6155,-0.24,-1.8448,1
0.4835,0.0156,-2.3748,1
0.5015,0.2883,-2.3175,1
1.2966,0.5165,-0.3356,1
1.943,0.3299,0.6708,1
1.943,0.3299,0.6708,1
2.417,0.379,-0.4227,1
3.2738,-0.1343,-1.5472,1
4.1163,-0.5115,-2.4377,1
4.0376,0.089,-1.23,1
3.5013,-0.601,-0.4655,1
2.9094,-1.0746,-0.4169,1
2.3349,-1.2877,-0.9029,1
2.5995,-1.508,-0.9631,1
4.2161,-2.6607,-0.1937,1
4.1157,-1.4865,-0.3397,1
4.6291,-0.334,-0.8724,1
4.9751,0.5209,-1.2738,1
3.4071,1.5632,-2.7246,1
1.564,0.4974,-5.0997,1
1.4615,0.0243,-4.7891,1
1.091,-1.4697,-2.36,1
0.1994,-3.7495,0.0696,1
-1.2272,-5.4348,1.235,1
-4.1948,-5.3266,3.5107,1
-5.3377,-4.3585,4.6033,1
-5.4328,-3.3576,5.4093,1
-2.6931,-1.7333,1.8487,1
1.3231,-0.8337,-2.317,1
0.7046,0.4938,1.003,1
0.7046,0.4938,1.003,1
-1.9877,0.852,1.4521,1
-5.0198,0.2266,2.3094,1
-5.7502,0.6466,2.8039,1
-5.4926,2.0048,2.2419,1
-5.4532,2.1236,1.6984,1
-5.5087,1.65,1.1924,1
-5.4536,0.6236,0.5295,1
-5.0943,-0.2495,-0.0811,1
-2.6248,-1.1652,-0.9213,1
0.4672,-1.7934,-2.1941,1
3.4564,-2.1686,-2.616,1
8.0672,-1.8211,-2.4735,1
11.4393,-0.8555,-3.7067,1
8.2981,1.7474,-2.6533,1
8.2981,1.7474,-2.6533,1
2.8368,0.1512,0.4517,1
-0.8095,-2.7415,3.3221,1
-1.8211,-4.0736,3.4088,1
-3.1207,-5.7598,1.5991,1
-6.6883,-5.378,-7.8036,1
-4.6403,-0.7722,-0.8118,1
-4.4241,1.3451,0.5001,1
-4.1488,0.7093,1.3328,1
-4.3571,-0.3284,2.3854,1
-4.3571,-0.3284,2.3854,1
-3.6627,-0.7436,2.4418,1
-2.307,-0.7464,3.0064,1
-1.7645,-0.7967,3.3151,1
-0.4103,-0.2286,2.5546,1
1.4181,-0.3782,1.8631,1
3.1088,-0.3161,1.4386,1
3.4907,0.6941,0.8736,1
2.49,1.3157,-0.3187,1
1.0082,0.5068,-1.5862,1
0.576,-0.1802,-1.7493,1
0.2664,-0.2678,-1.5953,1
-0.0589,0.5036,-0.8403,1
0.4285,0.5103,0.4163,1
0.4285,0.5103,0.4163,1
1.4986,0.0045,0.6748,1
2.4131,-0.0226,-0.0804,1
3.0522,0.1169,-1.614,1
3.1886,-0.3772,-3.2394,1
2.8054,-0.5531,-1.4894,1
2.4574,-0.6834,-0.0113,1
2.0304,-0.6314,1.153,1
2.127,-0.5644,0.6863,1
1.9842,-1.1647,-1.8457,1
1.9842,-1.1647,-1.8457,1
2.6173,-2.0712,-1.918,1
3.4276,-2.3086,-0.8501,1
3.4777,-0.5931,-0.3907,1
4.3374,0.3044,-0.4708,1
4.4292,0.2005,-0.7287,1
2.7222,0.456,-2.0814,1
1.1371,0.096,-3.9161,1
0.4627,-1.1495,-2.9178,1
-0.7507,-3.2441,0.744,1
-1.6163,-3.5018,1.935,1
-2.3977,-3.3882,3.1181,1
-3.3657,-3.2467,4.2158,1
-4.0193,-2.9383,4.7255,1
-3.9069,-2.1865,4.0176,1
-3.9069,-2.1865,4.0176,1
-1.8228,-0.574,0.3912,1
-0.2814,0.2962,-0.9025,1
0.3814,0.8254,0.2358,1
-0.0403,0.93,0.8496,1
-2.6219,-0.0687,1.7112,1
-3.2747,-0.3892,2.0044,1
-3.599,-0.2462,2.085,1
-4.8033,0.6072,1.3117,1
-5.2887,0.1474,0.106,1
-5.1846,-0.0107,0.0271,1
-4.5988,-0.2771,-0.2791,1
-2.9868,-0.5919,-0.8608,1
-1.6516,-1.0177,-1.1154,1
-0.2975,-0.9398,-0.9943,1
0.608,-0.7597,-1.1346,1
1.5794,-0.3936,-2.3996,1
3.8187,-0.9121,-4.1275,1
6.7462,-1.2406,-2.7371,1
6.496,0.9329,2.2462,1
4.8932,1.3579,3.6673,1
2.1999,1.3401,3.1699,1
0.7632,0.7036,2.2808,1
0.2528,-0.7445,1.433,1
-5.2249,-5.7938,-13.4577,1
-5.2249,-5.7938,-13.4577,1
-5.7148,-4.8319,-7.7425,1
-5.0124,-1.1735,-0.622,1
-4.5601,1.332,1.1855,1
-3.077,1.5407,1.8595,1
-2.561,0.676,2.1492,1
-1.8439,-0.4867,2.3209,1
-1.1591,-1.1884,2.2854,1
0.2345,-2.3205,2.0128,1
1.2545,-0.9842,1.4321,1
1.2867,-0.4847,1.2014,1
1.3268,0.6233,0.3699,1
1.2966,0.4425,-0.893,1
0.6863,-0.284,-1.9434,1
-0.1181,0.7578,-1.1389,1
-0.8174,1.0591,-0.2234,1
-1.1985,0.834,0.4493,1
-1.0843,-0.5115,2.1959,1
-0.8201,-1.5172,2.5546,1
0.0688,-0.8047,0.5233,1
0.0688,-0.8047,0.5233,1
0.8605,-0.4078,-0.2347,1
1.3298,-0.1177,-1.0291,1
1.4779,0.5899,-2.5284,1
1.5743,0.5892,-2.2996,1
1.6958,0.7099,-1.6271,1
1.5496,0.8305,-0.4361,1
1.4152,0.4517,0.9524,1
1.5973,-0.1654,1.9296,1
1.2795,-0.1713,0.9351,1
1.3375,-0.0337,-0.357,1
1.4234,-0.0502,-0.5945,1
1.9393,-0.3972,-2.3267,1
1.7522,-0.8806,-2.712,1
1.6958,-1.8658,-0.9644,1
1.6958,-1.8658,-0.9644,1
1.8246,-2.758,-0.2512,1
1.4069,-2.9103,0.1476,1
0.0397,-1.4903,0.2253,1
0.8192,-0.0184,-1.0917,1
2.0099,0.0216,-2.1846,1
2.8127,0.0488,-3.1005,1
3.1547,0.5091,-3.4603,1
3.168,0.7627,-2.4664,1
3.0281,0.7592,-0.8903,1
3.0114,0.5829,-0.487,1
2.848,-0.4645,0.6853,1
2.0031,-2.3025,1.7985,1
-0.1334,-4.3845,2.6604,1
-2.8191,-4.7714,3.9417,1
-4.2122,-4.464,5.1452,1
-5.0558,-2.8364,5.5284,1
-2.6432,-1.3046,0.7928,1
-0.3504,0.0085,-2.2271,1
-2.6396,0.4087,0.3638,1
-3.8084,0.7246,1.4822,1
-4.4193,1.2267,2.3427,1
-3.6818,1.9946,2.2378,1
-3.1867,2.0525,1.298,1
-3.1867,2.0525,1.298,1
-3.8289,0.9121,0.5134,1
-4.5879,0.2781,0.006,1
-5.622,-0.0122,-0.7242,1
-5.2831,-0.3405,-1.2773,1
-2.6793,-0.6873,-0.7885,1
0.4587,-1.0098,-1.0469,1
5.9317,-0.6767,-1.671,1
8.9714,-0.5853,-2.4431,1
9.4174,1.709,-1.6693,1
9.4174,1.709,-1.6693,1
4.5021,1.9791,1.485,1
0.4054,0.4678,1.4856,1
-2.5434,-12.1066,-1.578,1
-3.3481,-12.1432,-1.6531,1
-5.6607,-4.1439,0.196,1
-6.2519,-1.2981,-0.1312,1
-6.2386,1.1115,-0.0865,1
-5.2907,0.7912,0.8348,1
-4.2442,-0.3528,1.5635,1
-3.9822,-0.8859,2.1301,1
-3.4003,-1.3953,2.2856,1
-1.2489,-2.0026,2.0558,1
0.2928,-0.8598,1.8058,1
2.5177,0.5987,1.8318,1
2.5177,0.5987,1.8318,1
4.0363,1.0155,2.0551,1
0.5135,1.9124,-0.7142,3
0.5135,1.9124,-0.7142,3
0.3291,2.5602,-0.8705,3
0.1384,2.6015,-0.9282,3
0.094,2.361,-1.0764,3
0.1599,2.298,-0.9789,3
0.2395,2.148,-0.9259,3
0.3589,1.8103,-0.7624,3
0.3525,1.43,-0.6663,3
0.2788,0.7971,-0.3708,3
0.0501,0.1451,0.0459,3
0.0501,0.1451,0.0459,3
-0.0311,0.3169,0.1204,3
-0.2293,0.2963,-0.0883,3
-0.605,-0.4265,-0.0561,3
-0.7766,-2.1531,0.2229,3
-0.8167,-2.5391,0.1704,3
-0.5713,-2.1404,-0.2165,3
-0.405,-0.9742,-0.5584,3
-0.4018,-0.3435,-0.325,3
-0.3606,-1.004,0.1094,3
-0.1264,-2.2808,0.0987,3
-0.0669,-2.5993,0.1113,3
0.1621,-2.0934,-0.2642,3
0.914,-0.557,-0.5926,3
0.6998,1.7349,-0.9159,3
0.6998,1.7349,-0.9159,3
0.7509,2.6315,-0.732,3
0.4497,3.0945,-0.5975,3
0.2283,2.7597,-0.213,3
-0.0938,2.0013,-0.0344,3
-0.0949,1.6443,0.0925,3
-0.0748,1.2368,0.1318,3
-0.1158,0.8915,0.1623,3
-0.025,0.5961,0.3593,3
-0.0525,0.5502,0.4732,3
-0.0522,0.4762,0.4745,3
-0.0805,0.061,0.47,3
-0.2673,-0.8615,0.6169,3
-0.3259,-1.7738,0.9025,3
-0.3424,-2.3843,1.0821,3
-0.2997,-2.0372,0.9155,3
-0.4669,-1.9352,0.9256,3
-0.3725,-1.9854,0.8346,3
-0.2781,-2.6111,0.8346,3
-0.153,-3.1406,0.8309,3
-0.153,-3.1406,0.8309,3
0.2203,-0.5773,0.2668,3
0.1087,1.0346,-0.2807,3
0.0745,1.9866,-0.5885,3
-0.0454,2.822,-0.8001,3
-0.0454,2.822,-0.8001,3
-0.0801,3.1958,-0.7905,3
-0.2344,3.1288,-0.8327,3
-0.2742,2.6664,-0.8836,3
-0.1899,2.0847,-0.4643,3
-0.1686,1.703,-0.4173,3
-0.0816,1.277,-0.4288,3
0.0642,0.7468,-0.3036,3
0.0097,0.7122,-0.2513,3
0.0966,0.5578,-0.2396,3
0.0966,0.5578,-0.2396,3
0.0287,0.371,-0.3653,3
-0.1398,0.2091,-0.4075,3
-0.4454,-0.4384,-0.5301,3
-0.7501,-1.8018,-0.2586,3
-0.6997,-2.2666,-0.1735,3
-0.6317,-2.2371,-0.2833,3
-0.5301,-1.6166,-0.3592,3
-0.4847,-1.2332,-0.4171,3
-0.5094,-2.2856,0.0928,3
-0.5108,-2.5002,0.0672,3
-0.1976,-3.4982,0.5459,3
0.4196,-2.3704,0.4533,3
0.5241,-1.1862,-0.1014,3
0.6195,-0.7262,-0.2584,3
0.4634,0.8304,-0.6073,3
0.4617,1.9606,-0.7262,3
0.3645,2.9247,-0.7684,3
0.12,3.3067,-0.8679,3
-0.0349,2.9283,-0.8401,3
-0.0953,2.5685,-0.7655,3
-0.1265,2.1201,-0.5896,3
-0.0911,1.6272,-0.4142,3
-0.0234,1.0505,-0.1362,3
0.063,0.8405,0.0758,3
0.063,0.8405,0.0758,3
0.1408,0.8953,0.1122,3
0.1698,0.8145,0.2234,3
0.1176,0.6402,0.4108,3
-0.2227,0.3203,0.5294,3
-0.3124,0.0114,0.4775,3
-0.4225,-1.1074,0.359,3
-0.3867,-2.1077,0.3277,3
-0.2277,-3.076,0.5026,3
0.0217,-2.8839,0.3989,3
-0.0076,-2.7764,0.3525,3
0.094,-2.6265,0.3319,3
0.1136,-2.5096,0.4699,3
0.0895,-2.2965,0.4159,3
0.2739,-2.3329,0.4291,3
0.349,-1.5104,0.2557,3
0.3128,0.0194,-0.1884,3
0.1391,1.6292,-0.5542,3
-0.0622,2.3324,-0.7435,3
-0.2839,2.8606,-1.0144,3
-0.3856,2.8993,-1.075,3
-0.4133,2.6456,-1.0503,3
-0.4388,1.8731,-0.9383,3
-0.2131,1.6487,-0.9498,3
-0.0944,1.6076,-0.7038,3
-0.0944,1.6076,-0.7038,3
-0.072,1.5773,-0.4804,3
-0.14,1.2841,-0.1271,3
-0.2713,0.8271,0.1181,3
-0.4788,0.3512,0.2287,3
-0.4834,0.1992,0.2007,3
-0.8637,-0.3326,-0.098,3
-1.3158,-2.6357,0.2924,3
-1.2037,-3.9789,0.23,3
-1.0722,-4.0031,-0.3255,3
-1.0722,-4.0031,-0.3255,3
-0.3691,-2.0114,-0.8185,3
-0.4426,-0.7893,-1.1226,3
-0.3836,-0.5818,-0.647,3
-0.441,-1.6214,-0.107,3
-0.3105,-2.9964,0.3601,3
0.0471,-2.5656,0.2769,3
0.2149,-1.3822,0.0012,3
0.2229,0.1211,-0.1248,3
0.2272,0.6504,-0.02,3
0.2069,1.1016,0.0614,3
0.1269,1.5448,-0.0591,3
0.0371,1.5012,-0.2066,3
0.0473,1.362,-0.4437,3
0.0601,1.3115,-0.4407,3
0.0445,1.2221,-0.4011,3
0.0651,0.7166,-0.1534,3
0.1593,0.4209,-0.0163,3
0.1967,0.0441,0.1158,3
0.2374,-0.0874,0.1631,3
0.3206,-0.2686,0.2757,3
0.2456,-0.5284,0.2705,3
0.1707,-0.8781,0.3971,3
-0.0548,-0.9868,0.4841,3
-0.0548,-0.9868,0.4841,3
-0.2637,-0.7591,0.5346,3
-0.4574,-0.6705,0.56,3
-0.7,-0.6432,0.4973,3
-0.822,-0.5393,0.4925,3
-0.9281,-0.7123,0.4293,3
-0.8439,-1.1074,0.4501,3
-0.5623,-0.5909,0.3745,3
-0.3335,0.4739,0.0787,3
-0.4438,1.7111,-0.064,3
-0.4438,1.7111,-0.064,3
-0.5924,1.9281,-0.0045,3
-0.6531,1.7546,-0.123,3
-0.6684,0.1278,0.1617,3
-0.6684,0.1278,0.1617,3
-0.5823,-0.4294,0.1864,3
-0.4253,-0.9651,0.2323,3
-0.25,-0.7891,0.3492,3
-0.1002,-0.4141,0.1927,3
-0.0796,0.1269,0.0202,3
-0.1211,0.5183,-0.0664,3
-0.2162,1.0503,-0.3181,3
-0.3018,1.1798,-0.5614,3
-0.4159,1.0312,-0.7516,3
-0.4746,0.7543,-0.8392,3
-0.5063,0.7713,-0.8304,3
-0.5063,0.7713,-0.8304,3
-0.5818,0.432,-0.8874,3
-0.6223,-0.1268,-0.6237,3
-0.6597,-0.9635,-0.4068,3
-0.6936,-1.5828,-0.2116,3
-0.8105,-1.7165,-0.0448,3
-0.8233,-1.2921,0.046,3
-0.9125,-0.9204,-0.0135,3
-1.0183,-1.2833,0.1569,3
-0.989,-1.3191,0.1818,3
-0.89,-2.3228,-0.0446,3
-0.4041,-2.1124,-0.1513,3
0.2713,-1.067,-0.3927,3
0.577,1.048,-0.8272,3
0.577,1.048,-0.8272,3
0.6049,1.7952,-0.7618,3
0.6705,2.4791,-0.6662,3
0.38,1.5087,-0.6015,3
0.2684,0.6246,-0.3311,3
0.3669,0.2181,-0.3118,3
0.5186,-0.1167,-0.0971,3
0.7793,-0.1848,0.103,3
1.1201,0.9354,0.3888,3
1.1201,0.9354,0.3888,3
1.1072,1.1595,0.519,3
1.0632,1.3385,0.5537,3
0.9982,1.3764,0.5401,3
1.0679,1.1385,0.4397,3
1.0151,1.0504,0.3053,3
1.0302,1.0821,0.2201,3
0.9683,0.9706,-0.0057,3
0.9683,0.9706,-0.0057,3
0.8998,0.8453,0.0094,3
0.783,0.6336,0.0907,3
0.6404,0.4192,0.1287,3
0.324,-0.1774,0.2848,3
0.0364,-1.5402,0.4998,3
-0.1082,-2.2673,0.7747,3
-0.1175,-2.4595,0.7286,3
-0.058,-2.6413,0.6252,3
0.3077,-2.3267,0.6268,3
0.6437,-1.0729,0.3238,3
0.6622,-0.6679,0.3168,3
0.5788,0.5963,-0.1597,3
0.5845,0.8559,-0.1529,3
0.5124,1.1314,-0.333,3
0.3914,0.7951,-0.319,3
0.2203,-0.4858,-0.1294,3
0.1989,-0.7104,-0.0914,3
0.4712,-0.5013,0.3181,3
0.3022,-0.0528,0.1581,3
0.526,1.1387,-0.0652,3
0.6204,1.3288,-0.1275,3
0.5837,1.3523,-0.1599,3
0.5954,1.4111,-0.3007,3
0.5274,1.2541,-0.3503,3
0.4429,1.152,-0.3533,3
0.3221,1.1777,-0.4266,3
0.314,1.2672,-0.4281,3
0.283,1.499,-0.4534,3
0.1577,1.5626,-0.5096,3
0.1723,1.7036,-0.5597,3
0.115,2.0134,-0.6316,3
0.1126,2.0246,-0.6479,3
0.0471,1.9763,-0.6706,3
-0.1153,1.7348,-0.6736,3
-0.225,1.1008,-0.5942,3
-0.3362,0.72,-0.4126,3
-0.386,0.6875,-0.4834,3
-0.415,0.3609,-0.5293,3
-0.474,0.2893,-0.3899,3
-0.5046,0.4885,-0.5152,3
-0.8034,0.1753,-0.4244,3
-0.9585,-0.5968,-0.2283,3
-1.0416,-1.4241,-0.168,3
-1.0319,-2.039,-0.1265,3
-0.9102,-2.169,-0.0958,3
-0.7964,-2.1598,0.1332,3
-0.7964,-2.1598,0.1332,3
-0.7637,-2.637,0.2387,3
-0.7088,-3.1432,0.4805,3
-0.6193,-2.7575,0.39,3
-0.4391,-1.602,0.1557,3
-0.3499,-1.0286,0.0101,3
-0.2919,0.4671,-0.2042,3
-0.2813,1.5042,-0.4118,3
-0.213,2.2895,-0.5081,3
-0.2484,2.5762,-0.47,3
-0.2484,2.5762,-0.47,3
-0.2603,2.4002,-0.2923,3
-0.2478,2.0644,0.0803,3
-0.0299,1.7981,0.169,3
-0.0299,1.7981,0.169,3
0.0603,1.9409,0.115,3
0.1407,2.3475,0.0545,3
0.1413,2.1711,0.2066,3
0.1989,1.7723,0.1493,3
0.1336,1.0733,0.2642,3
0.1006,0.4795,0.4803,3
0.0278,0.1625,0.5317,3
-0.1243,-0.1007,0.5285,3
-0.348,-1.3903,0.7747,3
-0.3432,-2.9804,1.0422,3
-0.2994,-3.187,1.056,3
-0.1708,-3.3724,1.0563,3
-0.0359,-3.3372,0.9251,3
-0.0113,-3.007,0.84,3
-0.0412,-2.3771,0.6912,3
-0.0189,-2.2861,0.5982,3
-0.1415,-2.4813,0.6596,3
-0.1079,-1.7318,0.5186,3
0.011,-0.534,-0.0749,3
0.0953,0.811,-0.4175,3
0.1723,1.3099,-0.5787,3
0.2196,2.0338,-0.6968,3
0.2196,2.0338,-0.6968,3
0.2203,2.4378,-0.6414,3
0.1935,2.6318,-0.5967,3
0.2044,2.6699,-0.6587,3
0.166,2.5194,-0.5573,3
0.0425,2.3068,-0.4996,3
-0.0637,1.9133,-0.37,3
-0.1485,1.9701,-0.2809,3
-0.2962,2.2312,-0.4155,3
-0.4708,2.1311,-0.4432,3
-0.6065,1.3713,-0.4009,3
-0.708,0.4627,-0.2601,3
-0.708,0.4627,-0.2601,3
-0.625,0.1623,-0.2376,3
-0.5901,-0.0552,-0.5676,3
-1.0028,-1.2442,-0.7418,3
-1.0625,-2.6399,-0.5659,3
-1.0949,-2.6714,-0.5289,3
-0.8696,-2.7709,-0.4796,3
-0.6981,-2.2329,-0.7362,3
-0.5578,-1.7565,-0.6368,3
-0.4137,-1.6609,-0.5258,3
-0.2747,-2.3082,-0.1934,3
-0.0599,-2.6547,0.1915,3
-0.0599,-2.6547,0.1915,3
0.3426,-1.7874,0.0318,3
0.5558,0.2942,-0.4291,3
0.3718,1.3857,-0.6595,3
0.3848,2.3043,-0.599,3
0.1179,2.5357,-0.4691,3
0.0713,2.7478,-0.2456,3
-0.0863,3.0836,-0.197,3
-0.0863,3.0836,-0.197,3
-0.2284,2.4676,0.0569,3
-0.1825,2.2622,0.1156,3
-0.0791,2.0349,0.3397,3
-0.0791,2.0349,0.3397,3
-0.0294,1.5147,0.3948,3
0.089,1.0049,0.4831,3
0.0853,0.441,0.402,3
-0.0286,-0.4431,0.501,3
-0.2773,-2.2096,0.6128,3
-0.2323,-2.7258,0.6427,3
-0.1531,-3.147,0.5918,3
0.1141,-3.0793,0.6999,3
0.1398,-3.0889,0.6952,3
0.1292,-3.9707,1.0232,3
0.1292,-3.9707,1.0232,3
0.1402,-3.9846,1.1215,3
0.4399,-3.2091,0.9796,3
0.6249,-1.1872,0.3706,3
0.5786,0.8572,-0.117,3
0.5308,1.705,-0.1718,3
0.251,2.2465,-0.5025,3
0.3777,2.2387,-0.2802,3
0.2906,2.3809,-0.327,3
0.3239,2.1517,-0.3246,3
0.3239,2.1517,-0.3246,3
0.3401,2.1518,-0.2065,3
0.3632,2.2669,-0.1458,3
0.2604,2.1369,0.0066,3
0.0846,2.0624,0.2002,3
-0.0482,1.9783,0.1759,3
-0.2037,1.9898,0.2415,3
-0.4905,1.5698,0.0859,3
-0.5942,0.6335,0.1533,3
-0.5432,0.0164,0.1028,3
-0.681,-0.4427,-0.0588,3
-0.9283,-1.8372,0.0599,3
-0.8966,-2.4871,-0.1406,3
-0.7357,-2.5689,-0.5021,3
-0.5225,-2.3795,-0.6872,3
-0.5225,-2.3795,-0.6872,3
-0.3629,-1.7889,-0.6025,3
-0.4513,-1.985,-0.5079,3
-0.3172,-2.7474,-0.3252,3
-0.0286,-3.2994,0.0368,3
0.2659,-2.9035,-0.0205,3
0.539,-1.3891,-0.3259,3
0.5831,-0.0754,-0.5174,3
0.5958,1.3111,-0.5915,3
0.5577,1.5953,-0.5816,3
0.5876,1.7756,-0.5496,3
0.3857,2.5568,-0.57,3
0.3595,2.7714,-0.5736,3
0.2814,2.7062,-0.4715,3
0.1749,2.3864,-0.2928,3
0.2589,2.2706,-0.2304,3
0.3859,2.1729,-0.0888,3
0.3784,2.0847,-0.1429,3
0.3559,1.8968,-0.1117,3
0.3678,1.2854,0.1246,3
0.3678,1.2854,0.1246,3
0.2787,0.8307,0.2884,3
0.1749,0.1413,0.4939,3
0.023,-0.4161,0.5881,3
-0.2454,-0.801,0.7868,3
-0.4621,-1.1716,0.8122,3
-0.5996,-2.0143,0.7926,3
-0.4508,-2.5656,0.7823,3
-0.3629,-2.4329,0.6567,3
-0.4822,-1.7071,0.4817,3
-0.5634,-1.5577,0.4483,3
-0.5476,-1.9799,0.5422,3
-0.3754,-2.4932,0.5135,3
-0.1503,-2.2288,0.5413,3
0.1893,-0.6918,0.1563,3
0.1893,-0.6918,0.1563,3
0.2276,-0.0119,-0.0641,3
0.1718,0.7643,-0.3045,3
0.1632,1.4573,-0.5388,3
0.0336,1.5993,-0.6403,3
0.0251,1.6339,-0.6069,3
0.0152,1.6758,-0.7455,3
0.0019,1.8828,-0.8319,3
-0.0896,2.1447,-0.7497,3
-0.2233,2.1099,-0.5216,3
-0.2233,2.1099,-0.5216,3
-0.2821,1.9723,-0.417,3
-0.3067,1.8219,-0.4009,3
-0.3752,1.6807,-0.2043,3
-0.4216,1.4316,-0.2246,3
-0.3424,0.7631,-0.1673,3
-0.3814,0.1104,-0.132,3
-0.3208,-0.116,-0.2728,3
-0.4849,-0.4162,-0.4002,3
-0.7352,-1.3589,-0.403,3
-0.7471,-2.259,-0.2206,3
-0.6211,-2.3307,-0.225,3
-0.4238,-1.9198,-0.5426,3
-0.4238,-1.9198,-0.5426,3
-0.3393,-1.4615,-0.7038,3
-0.4339,-1.7154,-0.5048,3
-0.4037,-2.5268,-0.3194,3
-0.1652,-3.1011,0.0681,3
-0.2535,-2.4351,0.1227,3
0.1633,-2.0941,0.024,3
0.3534,-0.2704,-0.5303,3
0.4487,0.3468,-0.485,3
0.4195,1.042,-0.4278,3
0.3927,1.7383,-0.4056,3
0.3405,1.795,-0.4981,3
0.3571,2.0076,-0.5574,3
0.2756,2.0994,-0.5452,3
0.1028,1.9203,-0.4074,3
-0.0487,1.8832,-0.3006,3
-0.0646,1.7584,-0.1575,3
-0.0353,1.7541,-0.0199,3
0.026,2.0012,-0.0437,3
0.0242,2.1163,-0.0965,3
-0.0677,1.7037,-0.0301,3
-0.0925,1.6247,0.0072,3
-0.2186,1.2733,0.1467,3
-0.216,0.8099,0.3866,3
0.004,0.5835,0.5931,3
0.004,0.5835,0.5931,3
0.0156,0.6357,0.5322,3
-0.1134,-0.0126,0.6615,3
-0.2952,-1.8111,1.0121,3
-0.1854,-2.7607,1.1091,3
0.0214,-2.6448,1.116,3
-0.0011,-2.1124,0.9895,3
-0.1456,-1.5338,0.6523,3
-0.3751,-1.5592,0.6121,3
-0.4101,-2.5337,0.4125,3
-0.3271,-2.8206,0.2143,3
-0.2823,-2.6794,0.1415,3
-0.1909,-2.101,0.0795,3
-0.0259,-0.6093,-0.3627,3
-0.0811,0.2801,-0.57,3
-0.1146,1.1917,-0.7541,3
-0.1889,1.5692,-0.7966,3
-0.1918,1.6244,-0.8054,3
-0.1667,1.659,-0.8314,3
-0.0263,2.0527,-0.8782,3
0.0089,2.7542,-1.0125,3
0.0089,2.7542,-1.0125,3
-0.0561,2.6644,-0.8079,3
-0.1798,1.9867,-0.5639,3
-0.2974,1.646,-0.3568,3
-0.3272,1.6209,-0.2975,3
-0.3373,1.6578,-0.3367,3
-0.4648,0.8764,-0.0358,3
-0.5201,0.0868,0.2039,3
-0.4441,-0.351,0.1736,3
-0.3927,0.0019,-0.0331,3
-0.4789,-0.1949,-0.3698,3
-0.7589,-1.2771,-0.4319,3
-0.8008,-2.1921,-0.4866,3
-0.7735,-2.4878,-0.3766,3
-0.509,-2.1934,-0.362,3
-0.509,-2.1934,-0.362,3
-0.4103,-1.7811,-0.395,3
-0.6105,-1.5746,-0.3541,3
-0.7208,-1.6117,-0.1931,3
-0.7523,-2.0067,0.177,3
-0.7303,-2.692,0.4161,3
-0.6297,-2.3006,0.5999,3
-0.475,-1.3406,0.373,3
-0.2975,-0.76,0.3271,3
-0.0451,-0.5235,0.1294,3
-0.0451,-0.5235,0.1294,3
-0.0844,-0.0948,-0.018,3
-0.0931,1.133,-0.1865,3
-0.1957,1.7999,-0.4168,3
-0.1235,2.1459,-0.5022,3
-0.0973,2.1967,-0.4981,3
0.1322,1.5756,-0.4012,3
0.2117,1.4086,-0.3243,3
0.1647,2.0908,-0.4282,3
0.4196,1.7773,-0.4242,3
0.4196,1.7773,-0.4242,3
0.4151,1.4814,-0.2539,3
0.4773,1.2056,-0.0932,3
0.1168,0.0394,0.1272,4
0.082,0.0056,0.11,4
0.0834,0.0223,0.0925,4
0.0838,0.0127,0.0516,4
0.0699,0.011,0.1837,4
0.0699,0.011,0.1837,4
0.1398,0.025,0.2019,4
0.0945,0.0393,0.2513,4
0.1607,0.0095,0.1248,4
0.1046,0.0033,0.01,4
0.0875,0.0126,0.0511,4
0.1025,0.0082,0.0881,4
0.0812,0.0276,0.3165,4
0.1168,0.057,0.1401,4
0.1007,0.0245,-0.0306,4
0.0691,-0.0131,0.1201,4
0.0672,-0.03,0.0552,4
0.0862,-0.0006,0.124,4
0.0862,-0.0006,0.124,4
0.0711,0.0391,0.0924,4
0.0712,0.0302,0.1401,4
0.0982,0.0321,0.2065,4
0.1034,0.0078,0.1207,4
0.0681,-0.0196,0.0971,4
0.0542,-0.0121,0.0659,4
0.0878,0.0154,0.0747,4
0.0801,0.0501,0.1251,4
0.1155,0.0019,0.1838,4
0.077,0.0273,0.245,4
0.0656,0.0128,0.2212,4
0.0787,0.0565,0.1191,4
0.0959,0.0079,0.0409,4
0.0995,0.012,0.0412,4
0.0903,-0.0037,0.1408,4
0.12,0.0095,0.1243,4
0.1011,0.0125,0.076,4
0.0494,0.0033,0.1755,4
0.0926,0.0244,0.1394,4
0.0889,0.0094,0.0708,4
0.0889,0.0094,0.0708,4
0.0778,-0.0185,0.0154,4
0.0862,0.0026,0.0436,4
0.0958,0.0657,0.1219,4
0.1031,0.0491,0.1359,4
0.0967,0.0576,0.1097,4
0.1037,0.0482,0.1595,4
0.0644,0.0105,0.1094,4
0.0246,-0.0169,0.095,4
0.1059,-0.0332,0.123,4
0.0871,-0.0055,0.1245,4
0.1205,0.0453,0.1292,4
0.124,0.0365,0.1411,4
0.0735,0.0216,0.1715,4
0.0928,0.0511,0.1283,4
0.0928,0.0511,0.1283,4
0.0759,0.0347,0.1281,4
0.1121,0.0327,0.0991,4
0.1198,-0.0062,0.1893,4
0.0724,-0.0174,0.096,4
0.0692,0.036,0.0026,4
0.1088,0.0003,0.1478,4
0.0329,0.0039,0.0133,4
0.0957,0.0192,0.2555,4
0.125,0.0084,0.1401,4
0.125,0.0084,0.1401,4
0.0896,0.0128,0.0043,4
0.0521,-0.0068,0.1186,4
0.0811,0.0154,0.1825,4
0.0277,0.0458,0.0837,4
0.1155,0.0063,0.1155,4
0.1238,0.0108,0.1257,4
0.09,0.0138,0.1113,4
0.1215,0.0339,0.1283,4
0.0864,0.0315,0.1761,4
0.1278,0.029,0.1022,4
0.0639,0.0181,0.1095,4
0.1043,0.0238,0.021,4
0.1009,0.0007,-0.0054,4
0.1608,0.003,0.0925,4
0.1336,-0.0053,0.15,4
0.0812,0.001,0.3235,4
0.0852,0.0374,0.2805,4
0.0951,0.0184,0.0351,4
0.0602,-0.037,-0.0141,4
0.0375,0.0171,-0.0119,4
0.0169,0.0529,0.1867,4
0.157,0.0159,0.2262,4
0.1191,-0.0241,0.0885,4
0.1108,0.0296,0.117,4
0.1079,0.0274,0.113,4
0.1105,0.0663,0.0228,4
0.0829,0.0249,0.0079,4
0.0803,0.0343,0.024,4
0.0645,-0.0056,0.3507,4
0.0978,0.0037,0.331,4
0.0957,0.0018,0.2356,4
0.1142,0.0111,0.0241,4
0.0907,0.0305,0.0327,4
0.0846,0.0315,0.1533,4
0.082,0.0312,0.0934,4
0.105,0.0041,0.1104,4
0.0642,0.0376,0.1416,4
0.1281,0.0476,0.1686,4
0.1281,0.0476,0.1686,4
0.0989,0.029,0.1141,4
0.0815,0.0165,0.1233,4
0.101,-0.0048,0.059,4
0.1343,0.0061,0.0163,4
0.0436,0.0029,0.2088,4
0.0824,0.0065,0.1967,4
0.1123,-0.0133,0.0868,4
0.1368,0.0042,0.0703,4
0.0705,-0.0073,0.0793,4
0.0712,0.0033,0.2354,4
0.0712,0.0033,0.2354,4
0.1099,0.0537,0.1496,4
0.096,0.0414,0.1024,4
0.1224,0.0045,0.1005,4
0.0976,0.0333,0.1237,4
0.123,0.0599,0.0651,4
0.0589,0.0212,0.1684,4
0.1057,0.0052,0.0989,4
0.1223,-0.0169,0.1324,4
0.0591,-0.0327,0.0643,4
0.0591,-0.0327,0.0643,4
0.0457,0.0264,0.1757,4
0.1314,0.0311,0.1221,4
0.0778,-0.03,0.1394,4
0.0778,-0.03,0.1394,4
0.0455,0.0147,0.1226,4
0.046,0.0115,0.15,4
0.1142,0.0354,0.0405,4
0.097,0.0055,0.0288,4
0.0706,0.0108,0.0428,4
0.0575,0.0097,0.2336,4
0.0825,-0.0039,0.1735,4
0.1129,0.0183,-0.0124,4
0.1087,0.0357,0.1094,4
0.1087,0.0357,0.1094,4
0.0762,-0.0158,0.1329,4
0.0488,0.0073,0.1377,4
0.0741,-0.0055,0.1542,4
0.0925,0.0259,0.099,4
0.1558,0.032,0.0843,4
0.0791,0.0103,0.1082,4
0.0735,0.0039,0.1251,4
0.0912,-0.0131,0.1181,4
0.0956,0.0458,0.1608,4
0.1087,0.0509,0.0243,4
0.0909,0.0065,0.1032,4
0.0602,0.022,0.2441,4
0.1161,0.0123,0.153,4
0.1161,0.0123,0.153,4
0.0811,-0.0369,0.0645,4
0.0854,-0.0128,0.0764,4
0.1269,0.008,0.1377,4
0.0897,0.0211,0.1404,4
0.0567,0.026,0.1284,4
0.0954,0.0296,0.0569,4
0.0943,0.0054,-0.0031,4
0.0567,0.0156,0.1135,4
0.0773,0.0153,0.1532,4
0.1086,0.0261,0.1767,4
0.1086,0.0261,0.1767,4
0.1105,0.0168,0.0859,4
0.0965,0.0014,0.0549,4
0.0669,-0.0103,0.1232,4
0.1104,0.019,0.1401,4
0.0757,0.0361,0.1117,4
0.0798,0.0236,0.1579,4
0.0868,0.0069,0.1084,4
0.1562,0.0021,0.1176,4
0.0801,0.0132,0.136,4
0.0801,0.0132,0.136,4
0.0414,0.0189,0.1749,4
0.0845,0.0239,0.0454,4
0.1068,-0.0035,0.1529,4
0.1121,0.0388,0.1715,4
0.1055,0.0164,0.1169,4
0.122,0.0413,0.0579,4
0.0596,-0.0056,0.2157,4
0.0956,-0.0058,0.1347,4
0.1481,-0.0011,0.1108,4
0.1481,-0.0011,0.1108,4
0.0663,0.023,0.1108,4
0.0861,0.0268,0.1125,4
0.1337,0.0225,0.1849,4
0.1337,0.0225,0.1849,4
0.0944,0.0002,0.014,4
0.0953,0.0174,0.04,4
0.087,0.0358,0.1784,4
0.0589,0.0332,0.1594,4
0.0736,0.0307,0.1185,4
0.0801,0.0366,0.1209,4
0.1035,-0.017,0.042,4
0.0845,0.0064,0.2145,4
0.0668,0.0207,0.1565,4
0.0876,0.0193,0.0619,4
0.094,0.0219,0.047,4
0.0696,0.0001,0.047,4
0.0696,0.0001,0.047,4
0.0973,0.018,0.2188,4
0.0643,0.0469,0.1601,4
0.1095,0.0151,0.0933,4
0.114,0.0577,0.0491,4
0.0656,0.0331,0.0773,4
0.0502,-0.017,0.1485,4
0.0808,-0.042,0.0664,4
0.1265,0.0378,0.0561,4
0.1212,-0.0036,0.1516,4
0.1308,0.0123,0.1291,4
0.0781,-0.0001,0.1335,4
0.0649,0.0154,0.1311,4
0.0345,-0.0034,0.1281,4
0.1143,0.0394,0.1451,4
0.1421,-0.0526,0.1548,4
0.1282,-0.0191,0.0451,4
0.0756,0.0348,0.0959,4
0.0623,0.0081,0.1248,4
0.0782,0.0462,0.1821,4
0.0909,0.0052,0.1088,4
0.0724,-0.0027,0.0547,4
0.1041,0.0317,0.1222,4
0.1041,0.0317,0.1222,4
0.0827,0.0508,0.1795,4
0.0689,0.0372,0.061,4
0.088,-0.0181,0.1439,4
0.0962,0.0075,0.0673,4
0.0629,-0.0047,0.1458,4
0.093,0.0478,0.2179,4
0.1345,0.0392,0.073,4
0.0826,0.0155,0.0446,4
0.0957,-0.0041,0.0707,4
0.0957,-0.0041,0.0707,4
0.0393,-0.0144,0.1062,4
0.0954,0.0253,0.185,4
0.1334,0.0061,0.0537,4
0.1334,0.0061,0.0537,4
0.0576,-0.0274,0.1879,4
0.0465,0.0097,0.1436,4
0.0723,0.0373,0.085,4
0.1505,0.0389,0.0821,4
0.0888,0.0876,0.1165,4
0.0954,0.0131,0.1207,4
0.0342,0.0068,0.1445,4
0.0256,-0.0962,0.1295,4
0.1324,0.0373,0.1231,4
0.1157,0.0367,0.1323,4
0.1237,0.0133,0.1448,4
0.1149,-0.0161,0.1289,4
0.051,0.0107,0.0533,4
0.0768,-0.0077,0.2224,4
0.1103,0.0571,0.2205,4
0.1263,0.037,0.0944,4
0.1257,0.0193,0.0162,4
0.0601,-0.01,0.1067,4
0.0622,-0.0058,0.1344,4
0.0622,-0.0058,0.1344,4
0.1137,0.0385,0.1496,4
0.1408,0.0398,0.1142,4
0.0456,0.0088,0.0668,4
0.0456,0.0088,0.0668,4
0.0678,0.0223,0.2052,4
0.1017,0.0416,0.1452,4
0.0948,0.0549,0.0474,4
0.0961,0.0008,0.1071,4
0.0668,0.0501,0.1187,4
0.0559,0.0151,0.1394,4
0.0791,-0.045,0.1628,4
0.1192,0.0115,0.1102,4
0.1218,0.0473,0.1313,4
0.1157,0.0325,0.1456,4
0.1157,0.0325,0.1456,4
0.0838,0.0233,0.1533,4
0.1118,0.0132,0.0353,4
0.1011,-0.015,0.1094,4
0.0648,-0.0488,0.1031,4
0.1028,-0.0233,0.1547,4
0.1263,0.0064,0.1283,4
0.0474,0.0187,0.0719,4
0.0297,0.0421,0.0382,4
0.0624,0.0118,0.0799,4
0.0624,0.0118,0.0799,4
0.104,-0.0139,0.1612,4
0.1223,0.0438,0.173,4
0.0823,0.0326,0.1017,4
0.1022,0.0308,0.0562,4
0.0888,0.0092,0.0111,4
0.0836,0.0013,0.1464,4
0.0787,0.0366,0.1531,4
0.1044,-0.006,0.1499,4
0.1026,-0.0239,0.0888,4
0.0612,-0.0063,0.0526,4
0.0831,0.0649,0.0319,4
0.1026,0.0303,0.1415,4
0.1063,0.002,0.2003,4
0.0894,0.0256,0.0867,4
0.0894,0.0256,0.0867,4
0.0559,-0.029,0.0126,4
0.0737,-0.0179,0.1113,4
0.0358,0.048,0.156,4
0.1277,0.0705,0.1489,4
0.0798,0.0208,0.1988,4
0.1086,0.0202,0.0629,4
0.0813,-0.0006,0.0475,4
0.0745,0.0106,0.2022,4
0.1157,-0.0429,0.2208,4
0.1157,-0.0429,0.2208,4
0.1774,0.0182,0.1111,4
0.0982,0.029,0.0294,4
0.0561,0.0003,0.1107,4
0.1031,0.0418,0.3128,4
0.1344,0.0069,0.1038,4
0.0893,0.046,0.0523,4
0.0921,0.0189,0.0753,4
0.0904,0.0026,0.0827,4
0.0547,0.0141,0.1229,4
0.0526,0.0182,0.1593,4
0.1228,0.029,0.0982,4
0.0494,-0.0047,0.0781,4
0.1016,-0.0009,0.0665,4
0.0801,0.0331,0.1173,4
0.0801,0.0331,0.1173,4
0.1053,0.0232,0.1142,4
0.1064,0.0167,0.2079,4
0.0858,-0.0044,0.136,4
0.1117,0.0218,0.1206,4
0.1145,0.0544,-0.0326,4
0.0936,-0.0208,0.0778,4
0.0584,0.0313,0.08,4
0.0787,0.0383,0.1901,4
0.1219,0.0469,0.1462,4
0.1342,0.0432,0.1434,4
0.0741,0.0017,0.0008,4
0.0797,-0.0133,0.1159,4
0.0877,-0.0259,0.0524,4
0.0997,0.023,0.3122,4
0.0888,0.0258,0.143,4
0.1094,0.0066,0.0346,4
0.1001,0.0369,-0.0116,4
0.0716,0.0032,0.0167,4
0.0599,-0.0076,0.3838,4
0.0599,-0.0076,0.3838,4
0.0417,0.0263,0.2574,4
0.1304,0.0099,0.0275,4
0.0757,0.006,0.0176,4
0.0757,0.006,0.0176,4
0.049,0.018,0.0807,4
0.0573,-0.0236,0.1023,4
0.1162,0.0212,0.1926,4
0.1523,0.0032,0.01,4
0.0669,-0.0202,0.035,4
0.0545,0.0053,0.2226,4
0.0359,0.0064,0.2936,4
0.0766,0.0464,0.1337,4
0.1345,0.0317,0.0111,4
0.143,-0.0085,0.0041,4
0.1372,-0.0112,-0.001,4
0.0799,-0.0017,0.2417,4
0.0093,0.0646,0.2089,4
0.0987,0.0502,0.0646,4
0.1303,0.0279,0.0687,4
0.0794,-0.0228,0.0949,4
0.0444,-0.026,0.0597,4
-0.0143,-0.0238,0.2934,4
0.1051,0.0218,0.1122,4
0.1051,0.0218,0.1122,4
0.1485,-0.0089,0.0427,4
0.1006,0.0106,0.1056,4
0.0779,0.0074,0.141,4
0.0779,0.0074,0.141,4
0.0793,0.019,0.2024,4
0.1486,0.0661,0.2008,4
0.1553,0.0044,0.0819,4
0.0749,-0.0318,-0.067,4
0.0447,0.0168,0.3102,4
0.1132,0.0326,0.2526,4
0.1461,0.0461,0.0174,4
0.1772,0.0024,-0.0125,4
0.0502,-0.0283,0.1324,4
0.0333,-0.0002,0.1891,4
0.0618,0.0565,0.1025,4
0.083,0.0201,0.0816,4
0.1259,0.0345,0.1061,4
0.1223,0.0309,0.084,4
-0.0164,0.0103,0.2239,4
0.0231,-0.0009,0.2866,4
0.0402,-0.0242,0.1482,4
0.0917,0.0146,0.0965,4
0.1462,0.03,-0.0104,4
0.0495,-0.0119,0.1452,4
0.0495,-0.0119,0.1452,4
0.0151,0.0109,0.229,4
0.0549,0.0216,0.1795,4
0.1076,-0.0642,0.0474,4
0.0863,-0.0401,0.08,4
0.1195,-0.006,0.1494,4
0.0863,0.0429,0.2182,4
0.101,0.036,0.0613,4
0.0967,0.0205,0.0479,4
0.0608,0.0146,0.0524,4
0.0641,0.025,0.2304,4
0.0893,0.0431,0.2849,4
0.1032,0.0324,0.0069,4
0.1175,-0.0033,-0.0686,4
0.069,-0.0195,0.0967,4
0.069,-0.0195,0.0967,4
0.0667,-0.0087,0.1435,4
0.0257,-0.0122,0.4064,4
0.1317,-0.0245,0.1123,4
0.087,-0.0242,-0.0483,4
0.0855,0.0326,0.0645,4
0.0633,0.0126,0.0879,4
0.0954,0.0217,0.2141,4
0.0837,0.0194,0.0569,4
0.0939,0.0336,0.1842,4
0.0939,0.0336,0.1842,4
0.1368,0.0022,-0.0601,4
0.0583,-0.0299,0.1214,4
0.0509,-0.0148,0.1234,4
0.1273,0.013,0.166,4
0.1789,0.0778,0.3648,4
0.069,0.0242,0.2606,4
0.1174,0.032,0.1617,4
0.164,-0.018,-0.0392,4
0.0202,-0.0495,0.0067,4
-0.1039,-0.0016,0.1258,4
0.0435,-0.0115,0.1485,4
0.3447,0.0029,0.1272,4
0.1502,0.0032,0.006,4
0.0078,0.0119,0.0776,4
0.0223,0.0147,0.0942,4
0.021,0.0076,0.1697,4
0.1221,0.0361,0.2825,4
0.2301,0.04,0.0164,4
0.0189,0.0285,-0.0591,4
-0.0315,0.0353,-0.0159,4
0.0891,0.0058,0.1556,4
0.1516,-0.0068,0.1304,4
0.0478,0.0349,0.2368,4
0.1003,0.015,0.0521,4
0.1145,-0.0056,0.0334,4
0.1316,-0.0156,0.0337,4
0.0848,-0.0008,0.0727,4
0.0225,0.004,0.2398,4
0.1764,0.0313,0.1684,4
0.1239,0.0346,0.0849,4
0.0706,-0.0345,0.0537,4
0.0496,-0.0148,0.0289,4
0.0467,0.0216,0.186,4
0.1149,0.0195,0.1838,4
0.1149,0.0195,0.1838,4
0.1357,-0.0029,0.0711,4
0.031,0.0507,0.0392,4
0.1449,0.0533,0.2048,4
0.1449,0.0533,0.2048,4
0.1065,-0.0062,0.0926,4
0.0711,-0.0098,0.0682,4
0.0425,-0.0377,0.1771,4
0.0801,0.0086,0.2317,4
0.1627,0.0186,0.0654,4
0.1486,-0.0035,-0.0166,4
0.0438,-0.0146,0.023,4
0.0356,0.0064,0.2124,4
0.1397,0.0397,0.2982,4
0.0883,0.053,0.0942,4
0.0883,0.053,0.0942,4
0.0969,0.0109,-0.0414,4
0.0963,-0.0009,-0.0005,4
0.0583,0.0398,0.1919,4
0.086,0.0301,0.3062,4
0.1122,0.0314,0.1774,4
0.1205,0.0178,0.0602,4
0.1207,-0.0348,-0.0398,4
0.0293,-0.0272,0.1467,4
0.0757,0.0094,0.2574,4
0.1046,0.0697,0.2103,4
0.1104,0.0224,0.0577,4
0.0867,0.0066,-0.0326,4
0.0867,0.0066,-0.0326,4
0.0809,-0.0304,0.1864,4
0.0947,-0.0049,0.193,4
0.1059,0.0332,0.1739,4
0.1426,0.0315,0.0714,4
0.1384,0.0538,-0.019,4
0.1021,0.0342,0.0661,4
0.0746,0.0332,0.3011,4
0.0626,0.0042,0.2236,4
0.0855,-0.0118,0.0211,4
0.13,-0.0344,0.0536,4
0.1344,-0.0528,0.1251,4
0.0905,-0.0412,0.2409,4
0.0313,-0.0037,0.1834,4
0.0209,0.0336,0.0858,4
0.0744,0.0231,-0.012,4
0.1004,0.0204,-0.0118,4
0.1523,0.0372,0.1231,4
0.1138,0.0189,0.2114,4
0.0421,0.0513,0.1415,4
0.0756,0.0138,0.0461,4
-0.845,-2.9084,0.5489,2
-0.6287,-3.1392,0.6178,2
-0.1186,-2.659,0.7408,2
0.221,-1.1522,0.3702,2
0.3685,1.5307,-0.5522,2
0.388,2.5841,-0.8854,2
0.2954,2.9106,-0.9603,2
0.0983,2.5602,-0.9828,2
0.0983,2.5602,-0.9828,2
0.0811,2.3343,-0.9222,2
0.1128,1.7215,-0.6832,2
0.1504,1.4525,-0.4839,2
0.2315,1.5657,-0.6246,2
0.2212,1.5422,-0.6185,2
0.2499,1.7207,-0.621,2
0.2484,1.9663,-0.7247,2
0.2376,1.7682,-0.7532,2
0.1404,1.1284,-0.4637,2
0.1404,1.1284,-0.4637,2
0.0709,0.7467,-0.1171,2
-0.0356,0.1195,0.3629,2
-0.0966,-0.3663,0.6912,2
-0.1735,-0.9648,1.0841,2
-0.2023,-1.1783,1.2555,2
-0.2173,-1.3564,1.3996,2
-0.3077,-1.2806,1.1612,2
-0.4422,-1.8919,1.102,2
-0.5915,-2.7209,1.5703,2
-0.5915,-2.7209,1.5703,2
-0.6914,-3.3269,1.6643,2
-0.4411,-2.7585,1.3182,2
0.1452,1.1912,-0.2888,2
0.1452,1.1912,-0.2888,2
0.0999,1.6542,-0.625,2
0.0035,1.3316,-0.779,2
-0.0194,0.8705,-0.6257,2
-0.0348,0.9823,-0.7053,2
-0.0397,0.9597,-0.6483,2
-0.0435,0.9577,-0.4875,2
-0.02,0.8206,-0.2406,2
0.0951,1.1629,-0.1893,2
0.0951,1.1629,-0.1893,2
0.3797,2.1388,-0.6415,2
0.3797,2.1388,-0.6415,2
0.3972,2.0345,-0.7407,2
0.361,1.9467,-0.7549,2
0.2264,1.5382,-0.7801,2
0.0039,0.7338,-0.5339,2
-0.1336,0.2173,-0.4203,2
-0.4267,-0.6546,-0.1074,2
-0.5916,-1.6518,0.1897,2
-0.6801,-2.2449,0.4334,2
-0.8077,-2.2153,0.4622,2
-0.8077,-2.2153,0.4622,2
-0.8733,-2.3754,0.4796,2
-0.9054,-2.5566,0.3786,2
-1.0245,-2.7553,0.246,2
-1.049,-3.2303,0.4871,2
-0.9612,-3.4884,0.6176,2
-0.3579,-2.7477,0.7556,2
0.1163,-0.473,0.1038,2
0.2194,2.0505,-0.7008,2
0.0195,2.7665,-0.9344,2
-0.0868,3.0273,-1.0344,2
-0.3084,2.8861,-1.2816,2
-0.3095,2.4958,-1.2374,2
-0.2798,2.1495,-0.9539,2
-0.3604,1.5231,-0.6184,2
-0.3303,1.4701,-0.6295,2
-0.313,1.3616,-0.5854,2
-0.2573,1.2619,-0.5447,2
-0.1682,1.2639,-0.1164,2
-0.113,1.3735,-0.213,2
-0.0979,1.3559,-0.2975,2
-0.078,1.248,-0.3669,2
-0.0896,0.8909,-0.0993,2
-0.1205,0.3425,0.2745,2
-0.0959,-0.2702,0.6282,2
-0.0959,-0.2702,0.6282,2
-0.1395,-0.6671,0.8136,2
-0.1636,-0.8242,0.8152,2
-0.1333,-0.9403,0.9942,2
-0.1475,-1.3329,1.1218,2
-0.1462,-1.4485,1.1038,2
-0.1759,-1.5253,1.0591,2
-0.3403,-2.2294,1.2769,2
-0.4569,-2.9431,1.4667,2
-0.2845,-2.7215,1.2442,2
-0.0772,-1.3458,0.7957,2
0.1373,0.8252,-0.0978,2
0.1516,1.1102,-0.1722,2
0.1597,1.4048,-0.7586,2
0.0985,0.9862,-0.5339,2
0.1077,0.9306,-0.5468,2
0.0736,0.9896,-0.6246,2
0.1096,1.263,-0.5751,2
0.1221,1.4375,-0.3988,2
0.1352,1.9774,-0.4938,2
0.2061,2.1148,-0.4661,2
0.2525,1.9209,-0.5005,2
0.3426,1.8783,-0.5354,2
0.4079,1.9705,-0.6317,2
0.3924,1.6923,-0.5903,2
0.3924,1.6923,-0.5903,2
0.4417,1.6098,-0.6325,2
0.3351,1.4229,-0.6246,2
0.2407,0.9772,-0.5995,2
0.1118,0.5996,-0.4515,2
0.006,0.4379,-0.4099,2
-0.0823,0.1805,-0.3308,2
-0.1578,-0.1081,-0.2806,2
-0.2812,-0.2836,-0.0923,2
-0.3233,-0.3709,-0.0661,2
-0.5028,-0.6359,-0.0921,2
-0.6203,-0.9325,0.0219,2
-0.8654,-1.5252,0.3053,2
-1.1328,-1.6934,0.169,2
-1.1328,-1.6934,0.169,2
-1.254,-1.8453,0.1103,2
-1.3799,-2.2649,0.1897,2
-1.3188,-2.3131,0.4234,2
-0.5141,0.2815,-0.2911,2
-0.2959,1.3339,-0.6207,2
-0.2556,2.3622,-1.0381,2
-0.3607,2.5418,-1.1021,2
-0.6162,1.7795,-0.911,2
-0.8083,0.6596,-0.4412,2
-0.7908,0.6253,-0.392,2
-0.7767,0.4778,-0.3121,2
-0.6851,0.125,-0.2527,2
-0.5148,-0.0432,-0.0092,2
-0.1602,0.0326,0.2194,2
0.0231,0.3545,0.11,2
0.2266,0.7705,0.021,2
0.3248,1.256,-0.0182,2
0.3172,1.3135,0.1116,2
0.327,0.8041,0.1635,2
0.3388,0.5194,0.1631,2
0.3434,0.4704,0.1594,2
0.3655,0.5652,0.2257,2
0.327,0.4821,0.42,2
0.3048,0.1594,0.506,2
0.2838,0.0584,0.4901,2
0.2378,-0.1793,0.5572,2
0.1314,-0.8587,0.8268,2
-0.0166,-1.2823,1.1594,2
-0.096,-1.4099,1.1917,2
-0.0565,-1.3142,0.9944,2
-0.0643,-1.4754,0.9304,2
0.1764,-1.151,0.809,2
0.4099,0.1329,0.3301,2
0.3924,1.0832,-0.1953,2
0.3924,1.0832,-0.1953,2
0.4167,1.2516,-0.2651,2
0.3757,1.3576,-0.4672,2
0.2082,0.6634,-0.3993,2
0.1106,-0.681,0.0661,2
0.2114,-0.6544,0.2786,2
0.2437,-0.3515,0.2569,2
0.4148,0.0163,0.0245,2
0.481,0.1778,-0.21,2
0.5715,0.4642,-0.4418,2
0.6296,0.8081,-0.7268,2
0.5824,0.8192,-0.8785,2
0.4906,0.6342,-1.0195,2
0.4277,0.4232,-0.942,2
0.4277,0.4232,-0.942,2
0.3394,0.1729,-1.048,2
0.2818,-0.1251,-1.1064,2
0.2126,-0.6033,-0.9012,2
0.1633,-1.1104,-0.4719,2
0.1263,-1.1745,-0.413,2
0.085,-1.1065,-0.4553,2
-0.1242,-1.4203,-0.3144,2
-0.3082,-2.1002,0.0679,2
-0.2658,-2.5701,0.2892,2
0.4615,-0.6539,-0.2248,2
0.4615,-0.6539,-0.2248,2
0.6497,0.7756,-0.7902,2
0.5534,1.633,-0.9935,2
0.3829,1.5939,-0.8252,2
0.0051,1.1324,-0.7368,2
-0.1181,0.8502,-0.6263,2
-0.1663,0.0803,-0.4632,2
-0.1187,-0.4407,-0.2814,2
-0.0276,-0.3562,-0.3224,2
0.1636,0.048,-0.2144,2
0.203,0.1051,-0.2498,2
0.2394,0.3404,-0.2205,2
0.2645,0.3936,0.1406,2
0.2645,0.3936,0.1406,2
0.1959,0.1824,0.2834,2
0.1988,0.3315,0.2408,2
0.1562,0.3506,0.2989,2
0.1529,0.3565,0.3136,2
0.1125,0.2536,0.685,2
-0.0137,-0.1966,0.8191,2
-0.0728,-0.4527,0.9729,2
-0.2343,-0.867,1.1233,2
-0.3258,-1.0505,1.2092,2
-0.5853,-2.0644,1.3889,2
-0.7387,-2.6614,1.5759,2
-0.7832,-2.8424,1.6092,2
-0.7396,-3.1993,1.6847,2
-0.393,-2.0542,1.2946,2
-0.075,-0.0689,0.4381,2
-0.1323,1.2263,-0.3329,2
-0.1553,1.2675,-0.4421,2
-0.2416,1.1311,-0.4218,2
-0.3346,0.9142,-0.4843,2
-0.3906,0.7181,-0.6062,2
-0.4408,0.6272,-0.5379,2
-0.4687,0.672,-0.5284,2
-0.3798,0.7402,-0.5298,2
-0.2772,0.8556,-0.5365,2
-0.1845,1.0228,-0.491,2
0.0259,1.1794,-0.569,2
0.1226,1.2098,-0.6552,2
0.1658,1.1373,-0.6061,2
0.1009,0.8216,-0.5272,2
0.1266,0.6069,-0.5226,2
0.0931,0.5774,-0.4476,2
-0.0577,0.452,-0.3965,2
-0.1635,-0.142,-0.2279,2
-0.3015,-0.8405,-0.0333,2
-0.3804,-1.2852,0.1175,2
-0.3804,-1.2852,0.1175,2
-0.427,-1.4713,0.1197,2
-0.3991,-1.6058,0.1246,2
-0.5206,-2.1723,0.2412,2
-0.6789,-2.7535,0.3571,2
-0.6566,-2.8816,0.3353,2
-0.4829,-2.8729,0.1252,2
-0.2378,-2.7012,-0.0209,2
0.2524,-1.114,-0.0667,2
0.4376,0.7243,-0.5116,2
0.4342,1.0259,-0.5696,2
0.4086,1.6852,-0.7063,2
0.3918,2.1182,-0.7749,2
0.3237,2.0922,-0.851,2
0.1057,1.7625,-0.794,2
0.0766,1.4799,-0.7592,2
0.07,1.2349,-0.6915,2
0.1293,1.2579,-0.5614,2
0.1457,1.3197,-0.4447,2
0.2325,1.4313,-0.5226,2
0.2619,1.4537,-0.4132,2
0.1708,1.3172,-0.3138,2
0.1851,1.123,-0.229,2
0.105,0.7468,0.0138,2
-0.0505,0.3175,0.3731,2
-0.0505,0.3175,0.3731,2
-0.0887,0.2172,0.4419,2
-0.1866,-0.072,0.6777,2
-0.2338,-0.3496,0.8509,2
-0.245,-0.615,1.038,2
-0.1888,-0.6427,1.0086,2
-0.3092,-1.047,1.0416,2
-0.3833,-1.5501,1.1789,2
-0.4821,-2.0034,1.3595,2
-0.4321,-2.5444,1.4621,2
-0.4321,-2.5444,1.4621,2
-0.2188,-1.9909,1.2663,2
0.0347,-0.8396,0.708,2
0.1779,0.3648,0.06,2
0.0907,0.758,-0.2733,2
-0.0396,0.7208,-0.3198,2
-0.1231,0.7906,-0.422,2
-0.1964,0.9602,-0.5892,2
-0.2679,1.148,-0.7552,2
-0.2973,1.2236,-0.7381,2
-0.2973,1.2236,-0.7381,2
-0.2458,1.086,-0.6069,2
-0.246,1.0017,-0.4647,2
-0.0204,1.5089,-0.8621,2
-0.0204,1.5089,-0.8621,2
-0.0088,1.6645,-0.8809,2
-0.0098,1.502,-0.8319,2
-0.1264,1.3414,-0.6628,2
-0.2308,1.0388,-0.4836,2
-0.3439,0.6693,-0.3719,2
-0.4051,0.2741,-0.2207,2
-0.5573,-0.5344,0.0213,2
-0.6383,-1.0465,0.1953,2
-0.7009,-1.3277,0.2976,2
-0.7476,-1.9941,0.3718,2
-0.7476,-1.9941,0.3718,2
-0.7837,-2.3764,0.4527,2
-0.8282,-2.8212,0.539,2
-0.859,-3.1832,0.552,2
-0.78,-3.2678,0.5708,2
-0.5735,-3.0159,0.5422,2
-0.1906,-2.0869,0.2497,2
0.1455,-0.6247,-0.2556,2
0.2656,0.8506,-0.7595,2
0.1324,1.6589,-0.9499,2
0.0081,1.7984,-0.8961,2
-0.1872,1.9024,-0.8991,2
-0.2683,1.7091,-0.742,2
-0.3195,1.5872,-0.6777,2
-0.4194,1.7842,-0.6809,2
-0.4194,1.7842,-0.6809,2
-0.3878,1.8012,-0.7053,2
-0.2978,1.8137,-0.7422,2
-0.2027,2.1204,-0.6672,2
-0.1085,2.1277,-0.8253,2
0.0175,1.9128,-0.7738,2
0.0171,1.6831,-0.6497,2
0.0085,1.5646,-0.5678,2
0.0118,0.8928,-0.1446,2
0.0183,0.2211,0.1313,2
0.0183,0.2211,0.1313,2
0.0077,0.0267,0.3469,2
-0.0474,-0.2188,0.5625,2
-0.0136,-0.3926,0.6132,2
0.0084,-0.4321,0.7012,2
-0.0682,-0.7605,0.8752,2
-0.1419,-1.0381,0.838,2
-0.2858,-1.4577,0.7374,2
-0.4934,-2.369,0.8145,2
-0.5406,-2.9336,0.8606,2
-0.3141,-3.0737,1.0078,2
0.0265,-1.9779,0.7755,2
0.3334,-0.4526,0.0947,2
0.3083,0.3534,-0.3407,2
0.3083,0.3534,-0.3407,2
0.251,0.495,-0.2796,2
0.0808,0.4166,-0.2361,2
0.0684,0.7437,-0.4138,2
-0.0081,1.2027,-0.5501,2
-0.0969,1.3536,-0.5274,2
-0.1519,1.5589,-0.5156,2
-0.1104,1.6968,-0.5339,2
-0.1224,1.7837,-0.537,2
-0.1242,1.9349,-0.5406,2
-0.1242,1.9349,-0.5406,2
-0.1164,1.6758,-0.4992,2
-0.1512,1.4091,-0.5925,2
-0.1694,1.3296,-0.5843,2
-0.3671,0.3821,-0.367,2
-0.4564,-0.5586,-0.1553,2
-0.5889,-1.2792,0.0712,2
-0.7302,-1.7485,0.1744,2
-0.8318,-1.9504,0.2128,2
-0.9009,-2.4244,0.4215,2
-0.9009,-2.4244,0.4215,2
-0.8741,-2.2556,0.2802,2
-0.9283,-2.4397,0.2553,2
-0.77,-2.2946,0.4118,2
-0.7099,-2.2983,0.4548,2
-0.5441,-2.0263,0.447,2
-0.1354,-0.7809,0.0279,2
0.3349,0.957,-0.5761,2
0.3356,1.7071,-0.9052,2
0.317,1.8472,-0.9506,2
0.2823,1.815,-0.9484,2
0.1485,1.7835,-0.8364,2
0.0854,1.778,-0.7364,2
0.0865,1.6602,-0.6487,2
0.1581,1.2276,-0.5967,2
0.1581,1.2276,-0.5967,2
0.2441,0.9972,-0.4879,2
0.2735,0.8835,-0.4842,2
0.3152,1.0536,-0.5624,2
0.3422,1.3028,-0.5494,2
0.291,1.2163,-0.3829,2
0.2209,0.9509,-0.1444,2
0.0735,0.6369,0.1265,2
-0.0162,0.549,0.2367,2
-0.1411,0.2607,0.625,2
-0.1411,0.2607,0.625,2
-0.2043,0.0486,0.7566,2
-0.1698,-0.3793,0.8608,2
-0.2487,-0.5087,0.8874,2
-0.2487,-0.5087,0.8874,2
-0.3243,-0.6621,0.82,2
-0.4033,-0.9182,0.7641,2
-0.5409,-1.6207,1.1272,2
-0.6514,-2.2952,1.2242,2
-0.2269,-1.9402,0.7781,2
0.0988,-1.1105,0.4368,2
0.2353,-0.071,-0.0335,2
0.1153,0.3506,-0.3682,2
0.0598,0.4799,-0.4638,2
0.0222,0.563,-0.5312,2
0.0222,0.563,-0.5312,2
0.0133,0.6179,-0.6925,2
0.028,0.741,-0.7158,2
0.0318,0.7295,-0.7536,2
0.0881,0.9995,-0.7058,2
0.1188,1.1844,-0.755,2
0.2357,1.6187,-0.8224,2
0.3052,1.7746,-0.9252,2
0.3218,1.8537,-1.0036,2
0.3192,1.5138,-0.98,2
0.3192,1.5138,-0.98,2
0.2132,1.2024,-0.8795,2
0.0079,0.6469,-0.6786,2
-0.363,-0.8629,-0.169,2
-0.363,-0.8629,-0.169,2
-0.4351,-1.2724,-0.0818,2
-0.5536,-1.935,0.1171,2
-0.6905,-2.3556,0.1913,2
-0.8133,-2.6573,0.2813,2
-0.8841,-3.1063,0.5197,2
-0.9386,-3.1294,0.5051,2
-1.0165,-3.3461,0.6101,2
-0.7287,-2.9307,0.7186,2
-0.3293,-1.6319,0.2615,2
0.1639,1.0915,-0.6732,2
0.1639,1.0915,-0.6732,2
0.1398,1.3976,-0.7488,2
0.0588,1.6296,-0.6454,2
-0.0147,1.7297,-0.5033,2
-0.1631,2.0774,-0.5571,2
-0.1725,2.1467,-0.55,2
-0.2666,2.1405,-0.5247,2
-0.2555,1.924,-0.3895,2
-0.2473,1.5262,-0.0751,2
-0.2473,1.5262,-0.0751,2
-0.1205,1.3301,-0.226,2
0.0272,0.9903,-0.2218,2
0.1547,0.945,-0.1225,2
0.193,0.9185,-0.0815,2
0.179,0.8391,-0.0557,2
0.2371,0.7278,0.0139,2
0.3219,0.7865,-0.0069,2
0.2828,0.5493,0.2262,2
0.262,0.3912,0.436,2
0.2606,0.1307,0.5096,2
0.2588,-0.1936,0.5273,2
0.1978,-0.4419,0.6061,2
0.1413,-0.5615,0.6559,2
0.0992,-0.7216,0.5567,2
0.0992,-0.7216,0.5567,2
-0.0131,-0.9403,0.5152,2
-0.1164,-1.1623,0.5402,2
-0.2626,-1.819,0.6192,2
-0.1419,-2.1624,0.5145,2
0.0097,-1.8649,0.3958,2
0.3241,-0.9454,-0.0184,2
0.3653,-0.2314,-0.5504,2
0.2807,0.1408,-0.6628,2
0.1473,0.6056,-0.7695,2
0.1292,0.6737,-0.8156,2
0.0753,0.7086,-0.8694,2
0.0009,0.7704,-0.9721,2
-0.2644,1.3085,-0.999,2
-0.2644,1.3085,-0.999,2
-0.2935,1.2991,-0.8422,2
-0.3189,1.1774,-0.752,2
-0.2207,1.0704,-0.7035,2
-0.1982,0.9502,-0.8032,2
-0.1086,0.5687,-0.7401,2
-0.0774,0.5439,-0.7392,2
-0.1306,0.5975,-0.7793,2
-0.1817,0.6428,-0.6828,2
-0.1865,0.5766,-0.5477,2
-0.2111,0.7296,-0.5303,2
-0.2111,0.7296,-0.5303,2
-0.238,0.717,-0.4671,2
-0.2823,0.5331,-0.3883,2
-0.3274,0.3108,-0.2921,2
-0.3912,0.267,-0.2621,2
-0.4875,0.3177,-0.2903,2
-0.5694,0.271,-0.1981,2
-0.5565,0.0271,-0.0295,2
-0.6366,-0.6375,0.1636,2
-0.6808,-1.3326,0.3893,2
-0.6808,-1.3326,0.3893,2
-0.7714,-1.6128,0.4685,2
-0.752,-1.649,0.555,2
-0.7578,-2.2824,1.0265,2
-0.7578,-2.2824,1.0265,2
-0.678,-2.5478,1.2288,2
-0.5275,-2.3925,0.9762,2
-0.2214,-1.868,0.6573,2
-0.0061,-1.2337,0.4429,2
0.1174,-0.144,-0.0385,2
0.1283,0.1329,-0.1874,2
0.1648,0.9597,-0.409,2
0.1429,1.4443,-0.5163,2
0.1955,1.7367,-0.4684,2
0.1788,1.6525,-0.3141,2
0.1788,1.6525,-0.3141,2
0.199,1.5582,-0.0895,2
0.1789,1.5389,-0.1112,2
0.2223,1.5633,-0.1249,2
0.2873,1.2285,-0.0822,2
0.2906,1.0483,-0.0921,2
0.3121,0.7103,-0.097,2
0.3489,0.5263,-0.2193,2
0.3611,0.4603,-0.2196,2
0.3837,0.2724,-0.1913,2
0.3837,0.2724,-0.1913,2
0.3554,0.2083,-0.1031,2
0.3363,0.1714,-0.0072,2
0.3326,0.1378,-0.0147,2
0.278,-0.1441,0.066,2
0.2183,-0.4814,0.266,2
-0.0304,0.1198,0.1914,5
-0.0304,0.1198,0.1914,5
-0.2072,0.1032,0.3617,5
-0.1852,0.1606,0.3122,5
-0.0625,0.087,0.173,5
0.3041,0.0008,0.4815,5
0.2612,-0.0292,0.0434,5
0.2214,-0.0362,-0.1477,5
0.0244,-0.0284,0.0287,5
0.055,-0.0112,0.0179,5
0.0574,-0.0405,-0.0614,5
0.113,-0.0422,-0.2202,5
0.113,-0.0422,-0.2202,5
0.1238,-0.0817,-0.0859,5
0.0685,-0.0275,0.2271,5
0.2953,-0.0595,0.1583,5
0.0932,-0.0064,0.5406,5
0.1643,0.0071,0.5273,5
-0.0051,0.0296,0.1868,5
0.0145,0.1519,-0.1074,5
0.4204,0.076,0.194,5
0.0964,-0.056,0.3406,5
0.0964,-0.056,0.3406,5
-0.1599,0.0429,0.1599,5
-0.08,0.0722,0.1788,5
-0.0795,-0.0062,-0.148,5
-0.0795,-0.0062,-0.148,5
0.1579,-0.0704,-0.0947,5
0.1328,-0.0508,-0.0589,5
0.1043,-0.0458,-0.1378,5
0.226,-0.0621,0.0292,5
0.2344,-0.3357,0.2403,5
0.0823,-0.1282,0.0942,5
0.0014,-0.0698,0.3087,5
0.2542,0.2006,0.35,5
0.1788,0.1529,0.3006,5
0.1797,0.1683,0.1635,5
0.1678,0.2101,0.1612,5
-0.0143,0.0214,0.0089,5
0.0574,-0.0509,0.016,5
0.245,0.2005,0.0637,5
0.214,0.1266,0.2855,5
0.135,0.054,0.1008,5
0.0658,-0.029,-0.1175,5
0.0298,0.0638,-0.2095,5
0.2,0.1718,-0.0546,5
0.0319,-0.2834,0.3215,5
0.0319,-0.2834,0.3215,5
-0.1342,-0.2835,0.5116,5
-0.2867,-0.2355,0.2163,5
-0.2409,-0.1493,0.0716,5
-0.1267,-0.1542,0.1624,5
0.108,-0.1078,0.2809,5
0.1446,-0.1327,0.3962,5
0.157,-0.1355,0.4967,5
0.1178,0.0694,0.1746,5
0.3599,0.2745,-0.0285,5
0.7661,0.6892,0.1294,5
0.84,0.5986,0.2171,5
0.5712,0.2434,0.2591,5
0.3856,0.1873,0.4114,5
0.3856,0.1873,0.4114,5
0.3595,0.0598,0.3551,5
0.4155,0.0217,0.5059,5
0.4944,-0.0075,0.3645,5
0.2627,-0.0418,-0.0388,5
0.0433,-0.149,-0.4074,5
0.2288,-0.1375,0.0216,5
0.4804,-0.1558,0.2723,5
0.1195,-0.0051,-0.2702,5
-0.154,-0.1825,-0.1309,5
-0.154,-0.1825,-0.1309,5
0.004,-0.4999,0.32,5
-0.3182,-0.48,0.325,5
-0.1604,-0.0262,-0.2405,5
-0.1604,-0.0262,-0.2405,5
-0.1625,0.0901,-0.3356,5
-0.1116,0.0632,-0.1421,5
0.245,0.0292,0.3859,5
0.3012,0.0189,0.6146,5
0.1507,0.0834,0.0995,5
0.1523,0.2319,0.028,5
0.1093,0.3586,0.0593,5
0.1291,0.3461,0.0159,5
-0.0228,0.3052,0.2627,5
-0.3186,0.2747,0.212,5
-0.2743,0.2055,0.3239,5
-0.1261,0.2394,0.2634,5
-0.1405,0.2269,0.1911,5
-0.1373,0.244,0.0438,5
0.0162,0.1387,0.065,5
0.144,0.0368,0.3151,5
0.1918,0.0285,0.3767,5
0.1337,-0.0328,0.2496,5
0.1146,-0.0388,0.009,5
0.2106,0.1187,-0.3268,5
0.1877,0.1198,-0.3645,5
0.1627,0.0006,-0.2821,5
0.1224,-0.1169,0.0106,5
0.0491,-0.3122,0.2721,5
0.0314,-0.3014,0.3069,5
0.0127,-0.2378,0.2033,5
0.0269,-0.2228,0.0401,5
0.1916,-0.03,0.1783,5
0.2974,0.0008,0.3133,5
0.2325,0.1146,0.1108,5
0.1617,0.1821,0.157,5
0.1049,0.1124,0.0796,5
0.0849,0.0817,0.0934,5
0.1906,-0.0533,0.3942,5
-0.0323,-0.1536,0.2049,5
-0.0491,-0.1353,0.1395,5
-0.0217,-0.1067,0.1453,5
-0.1432,-0.2008,0.1618,5
-0.0936,-0.2318,0.3854,5
0.0826,-0.0415,0.2558,5
0.1237,0.0821,-0.1322,5
0.1145,0.19,-0.2181,5
0.247,0.2298,-0.3005,5
0.3795,0.165,-0.1098,5
0.1656,-0.0547,0.2196,5
0.1167,-0.0998,0.2156,5
0.0587,-0.137,0.198,5
0.0217,-0.0452,0.2135,5
0.046,-0.0193,0.0068,5
0.2274,-0.0254,-0.0773,5
0.1687,-0.3149,0.0545,5
0.1031,-0.3582,0.1776,5
0.1536,-0.3018,0.3621,5
0.3415,0.1058,0.3367,5
0.2035,0.2611,-0.0066,5
0.1739,0.2498,-0.0264,5
0.174,0.2559,-0.0495,5
0.2387,0.2848,-0.0342,5
0.2655,0.1958,0.0115,5
0.2655,0.1958,0.0115,5
0.2159,0.1374,-0.028,5
0.1019,0.0453,-0.0946,5
0.0554,-0.1689,-0.0102,5
0.1008,-0.213,0.1432,5
0.1099,-0.2729,0.1807,5
0.0014,-0.2955,0.0547,5
-0.0283,-0.2412,0.0234,5
0.0547,-0.07,0.0335,5
0.0151,0.0058,0.1427,5
-0.0166,0.0608,0.1757,5
0.014,0.1558,0.1981,5
0.014,0.1558,0.1981,5
0.0515,0.2794,0.2652,5
0.0867,0.2803,0.1188,5
0.0924,0.2692,0.0383,5
-0.0224,0.1602,0.318,5
-0.0583,0.0477,0.3036,5
0.0319,0.0585,0.335,5
0.0671,0.0636,0.2504,5
0.1009,-0.0102,0.2102,5
0.1704,0.0513,0.0969,5
0.1704,0.0513,0.0969,5
0.2227,0.0899,0.0824,5
0.2227,0.0899,0.0824,5
0.171,0.0069,0.0417,5
0.1616,-0.0202,0.1255,5
0.1532,-0.0118,0.2461,5
0.0851,-0.0589,0.1986,5
0.0359,0.0151,0.1264,5
0.0165,0.0063,0.1148,5
0.0005,0.0244,0.1595,5
0.1909,0.0488,0.3119,5
0.1545,0.0489,0.2084,5
-0.0709,-0.0332,-0.0716,5
-0.059,-0.0033,-0.0894,5
-0.0203,-0.0107,-0.0627,5
0.0172,0.0046,0.2701,5
0.0377,-0.0186,0.2584,5
0.0518,-0.0051,0.2523,5
0.0081,-0.0613,0.1517,5
0.0838,-0.0089,0.109,5
0.0946,-0.0066,0.112,5
0.0826,0.0671,-0.0237,5
0.0287,0.0013,0.036,5
0.0844,-0.0479,0.0513,5
0.0377,0.0234,0.0115,5
0.0608,0.0521,0.0747,5
0.1203,0.0179,0.0909,5
0.1366,0.0081,0.0814,5
0.1366,0.0081,0.0814,5
0.2061,0.0706,0.1541,5
0.1948,0.1081,0.237,5
0.0998,0.0127,0.1203,5
0.1528,0.0468,0.2166,5
0.23,0.0711,0.1766,5
0.185,0.0744,0.1084,5
0.0628,0.0347,-0.0164,5
0.0313,-0.0012,-0.0841,5
0.0945,0.0303,-0.0607,5
0.0945,0.0303,-0.0607,5
0.1849,-0.0081,0.1841,5
0.1352,-0.071,0.1637,5
0.0858,-0.0387,0.1627,5
-0.0382,-0.0434,0.0726,5
-0.0471,-0.0404,0.1029,5
-0.0372,-0.0477,0.1672,5
0.1037,-0.085,0.3676,5
0.1307,-0.0418,0.3195,5
0.1127,0.0608,-0.0096,5
0.1251,0.1217,-0.0626,5
0.1607,0.1721,0.0119,5
0.2769,0.1405,0.205,5
0.3681,0.1434,0.3152,5
0.2309,0.1322,0.0943,5
0.2032,0.1144,0.0496,5
0.0696,0.0531,-0.0394,5
0.0504,0.0614,0.1929,5
0.012,0.0196,0.3745,5
-0.0129,-0.1028,0.3883,5
-0.0476,-0.0666,0.3723,5
-0.0801,-0.0982,0.2587,5
-0.0582,-0.0072,0.0235,5
-0.0021,0.0245,-0.1137,5
0.082,-0.0775,0.1004,5
0.082,-0.0775,0.1004,5
0.1158,-0.0577,0.1946,5
0.0801,-0.0602,0.1847,5
0.033,-0.0401,0.0426,5
0.1898,0.0719,-0.0022,5
0.2775,0.0651,0.009,5
0.2777,0.0173,0.1035,5
0.269,0.0226,0.0806,5
0.1831,0.0475,0.1423,5
0.1407,-0.0016,0.1714,5
0.1044,0.012,0.1818,5
0.1044,0.012,0.1818,5
0.1173,-0.0148,0.2477,5
0.0317,-0.0016,0.1491,5
0.0317,-0.0016,0.1491,5
0.0498,0.0361,0.1889,5
-0.0159,-0.0277,0.2076,5
0.0162,-0.04,0.1823,5
0.06,-0.0526,0.0408,5
0.0126,-0.0356,0.0032,5
0.0407,-0.0082,0.0297,5
-0.0143,-0.028,0.0274,5
0.0067,-0.0793,0.0873,5
0.0046,-0.1074,0.2578,5
0.0571,-0.0351,0.2492,5
0.0571,-0.0351,0.2492,5
0.1413,-0.0449,0.0349,5
0.1587,-0.0002,-0.1037,5
0.1769,0.0274,-0.0602,5
0.061,-0.081,0.0348,5
0.0275,-0.0707,0.0425,5
0.0922,-0.0774,0.0692,5
0.0684,-0.0269,0.095,5
0.0221,0.053,-0.0976,5
0.0996,0.1053,0.0179,5
0.0996,0.1053,0.0179,5
0.1314,0.0584,0.1329,5
0.0615,0.0326,0.3101,5
0.0149,-0.0611,0.1702,5
0.0149,-0.0611,0.1702,5
-0.0071,-0.0337,0.1907,5
0.0848,-0.0357,0.2671,5
0.1918,0.0026,0.2259,5
0.1754,0.0422,0.113,5
0.2262,0.0128,0.1468,5
0.2443,0.0637,0.1145,5
0.1962,0.1131,-0.0331,5
0.1546,0.141,-0.1038,5
0.0817,0.0235,-0.0001,5
0.0817,0.0235,-0.0001,5
0.0805,0.0155,0.0076,5
0.0672,0.1046,0.0195,5
0.0615,0.053,0.1117,5
0.07,0.0379,0.1535,5
0.0291,0.0233,0.3051,5
-0.0051,0.0096,0.4082,5
0.0085,0.0024,0.3648,5
-0.0174,-0.0668,0.4246,5
-0.0142,-0.1248,0.3864,5
0.0254,-0.075,0.2475,5
0.057,-0.0686,0.2121,5
0.1492,-0.0299,0.1461,5
0.1316,0.0077,-0.0023,5
0.0609,-0.0476,-0.1442,5
0.0609,-0.0476,-0.1442,5
