accx,accy,accz,label
-5.0664,-3.9265,3.1564,1
-5.5955,-3.2825,3.6232,1
-3.9499,-2.0161,1.9118,1
-1.9099,-1.3519,-0.0245,1
0.096,-0.387,-0.0941,1
0.1264,0.8348,1.3347,1
-1.4581,1.4053,1.339,1
-4.3818,0.5936,1.55,1
-4.3818,0.5936,1.55,1
-4.9702,0.9178,1.9869,1
-5.3943,1.6649,1.9395,1
-6.072,2.3596,1.2726,1
-6.0357,2.2241,0.228,1
-5.4273,1.7542,-0.2141,1
-3.1829,0.7542,-1.4115,1
-0.1925,-1.0392,-2.738,1
5.2745,-3.0434,-3.3592,1
11.7096,-2.5004,-0.7728,1
10.6991,-0.5194,-3.2551,1
7.1985,2.5203,-4.6992,1
1.6803,-1.1383,0.5641,1
-1.0396,-5.7138,2.2646,1
-1.509,-6.0755,2.3392,1
-4.1291,-4.9643,-0.0953,1
-6.9627,-3.1765,-2.0427,1
-6.8621,-0.0094,0.476,1
-5.3174,1.2662,2.0331,1
-3.3581,-1.1079,2.3593,1
-2.804,-2.308,2.9822,1
-2.3182,-2.3335,2.8975,1
-1.6856,-1.0288,2.6187,1
-0.4064,-0.2064,1.9871,1
1.0313,-0.1035,0.8351,1
1.0313,-0.1035,0.8351,1
1.4906,0.0658,-0.0118,1
1.2781,0.2899,-0.8007,1
0.5037,0.9216,-0.6132,1
-0.482,0.6339,0.4279,1
-0.6211,0.0976,0.6288,1
-0.0342,-0.5728,0.4625,1
0.9334,-0.1193,-0.2559,1
1.3939,0.7393,-0.4654,1
1.5355,0.919,-0.4249,1
1.437,0.2902,-0.6819,1
1.4989,-0.5359,-1.6228,1
1.7947,-0.7742,-3.084,1
3.2248,-0.5766,-2.1152,1
3.2248,-0.5766,-2.1152,1
3.7276,-0.5293,-0.8524,1
3.9795,-0.3758,0.0623,1
4.3015,-0.2394,-0.1348,1
5.0424,-0.6492,-1.229,1
4.9976,-2.0655,-1.2391,1
4.7559,-2.61,-0.6579,1
4.2798,-1.6758,-0.3368,1
3.8503,-0.8393,-1.0905,1
1.8142,0.2244,-3.1935,1
1.8142,0.2244,-3.1935,1
0.7926,-0.6156,-4.9723,1
0.2898,-2.3931,-2.4755,1
-0.5528,-4.8559,-0.5827,1
-3.7209,-5.4532,1.6214,1
-5.1814,-3.4805,3.2738,1
-5.7217,-2.0937,4.0481,1
-5.3201,-1.3176,4.4556,1
-2.8593,-1.3253,2.1421,1
0.8481,-0.3959,-0.8287,1
1.8495,0.6375,-0.2058,1
0.6176,1.2799,0.1557,1
-3.1785,0.6117,1.0064,1
-4.1949,0.5782,1.9978,1
-4.4509,0.7405,2.094,1
-5.2776,1.9645,2.1581,1
-5.8009,2.3295,1.5913,1
-6.3262,2.3751,1.0404,1
-6.9265,2.1886,0.3968,1
-5.1353,0.3957,-1.3668,1
-3.3232,-1.2058,-2.4774,1
0.3111,-2.7913,-4.2027,1
5.4108,-3.5177,-4.175,1
9.6066,-1.5165,-1.6159,1
10.7735,0.849,-4.0681,1
10.7735,0.849,-4.0681,1
9.1288,1.7629,-3.6199,1
2.8784,-1.6837,0.5303,1
-0.1521,-4.7259,3.2831,1
-2.3595,-3.461,1.6444,1
-4.2212,-2.6786,0.089,1
-5.3842,-0.6874,-3.2144,1
-4.4599,1.283,0.0964,1
-4.4814,-0.0278,0.9199,1
-3.8224,-1.3382,1.325,1
-3.8224,-1.3382,1.325,1
-3.2543,-1.8647,1.5185,1
-2.2996,-1.4669,2.4371,1
-1.5841,-0.7752,2.7982,1
-0.9109,-0.0228,2.2502,1
0.366,0.3046,1.4734,1
2.3004,-0.2094,0.907,1
3.9813,-0.2057,0.6136,1
3.9024,0.0858,0.5143,1
2.0253,1.827,-0.212,1
1.2099,0.8694,-0.7273,1
0.7415,-0.2508,-1.4886,1
-0.0028,-0.4209,-2.2418,1
-0.3898,0.1674,-2.1297,1
0.5146,0.1139,-0.8176,1
0.5146,0.1139,-0.8176,1
1.7818,0.2075,-0.0578,1
2.9818,0.6409,-0.5767,1
4.3032,0.3857,-1.672,1
4.4322,0.2802,-1.9349,1
4.1211,0.014,-0.9913,1
3.9791,-0.5448,-0.0218,1
4.1118,-0.9799,-0.161,1
4.3637,-1.2242,-0.9763,1
5.7983,-3.0224,-1.6413,1
5.7983,-3.0224,-1.6413,1
5.1447,-1.7402,-1.4489,1
5.0683,-0.66,-1.0589,1
4.5191,0.2842,-1.2477,1
2.4316,0.4575,-3.5632,1
1.5969,-0.8377,-3.9778,1
0.6859,-4.6694,-1.5591,1
-1.3642,-6.6092,0.6662,1
-4.8036,-5.844,3.0262,1
-5.7314,-3.8121,4.3644,1
-5.8053,-2.0047,4.7224,1
-3.5473,-0.6557,1.8088,1
-0.1647,-0.6249,-0.9165,1
2.0617,0.1728,-0.6127,1
1.1509,1.597,0.1822,1
1.1509,1.597,0.1822,1
-2.4972,0.9324,0.5775,1
-4.0831,0.4376,1.515,1
-4.9739,1.3387,2.5189,1
-5.8946,2.291,2.364,1
-6.3312,2.4275,1.6738,1
-6.8123,2.2718,0.8195,1
-6.0097,1.5763,-0.3104,1
-3.6863,-0.4177,-2.0737,1
0.1927,-2.6896,-3.9315,1
1.4356,-3.0263,-4.1083,1
5.3777,-3.2957,-3.7557,1
8.0541,-1.6264,-2.3768,1
8.9157,0.1786,-2.5679,1
9.1369,2.0131,-2.4592,1
4.6481,0.8377,-0.1189,1
0.5946,-2.0265,3.0806,1
-0.1106,-3.4912,3.5541,1
-1.2873,-4.4097,1.7588,1
-4.9768,-3.1921,-6.5884,1
-4.1854,0.0821,-1.8689,1
-4.9467,0.6274,-0.5405,1
-4.7462,-0.9829,0.749,1
-3.7341,-1.5053,1.62,1
-3.7341,-1.5053,1.62,1
-3.4237,-0.9554,3.094,1
-3.064,-0.4144,3.467,1
-2.4051,-0.1937,2.8825,1
0.0483,-0.2889,1.5673,1
1.4869,-0.3344,1.4809,1
2.9376,-0.0312,1.4571,1
4.0166,0.7724,1.141,1
3.9532,1.4286,0.0096,1
2.3113,1.0485,-1.4193,1
2.3113,1.0485,-1.4193,1
1.756,-0.0055,-2.1164,1
1.2544,-0.3536,-2.755,1
0.6586,0.1012,-2.5927,1
0.9678,0.3859,-0.3952,1
1.2601,0.1813,0.3529,1
1.5056,0.0605,0.1644,1
2.3607,-0.2707,-1.1386,1
3.9503,-0.3617,-1.4461,1
4.1268,-0.0321,-0.6879,1
4.1268,-0.0321,-0.6879,1
3.5789,-0.5871,-0.7403,1
3.0475,-0.8553,-1.2111,1
4.3013,-2.3591,-0.5423,1
4.3013,-2.3591,-0.5423,1
4.9462,-2.8497,-0.2737,1
4.9626,-1.8861,-0.7391,1
5.2721,-0.4676,-1.5468,1
4.4983,0.6287,-1.9672,1
1.8356,0.5216,-3.9043,1
0.9535,-1.5775,-3.2048,1
0.3058,-3.6677,-1.8209,1
-1.0135,-6.0834,-1.0117,1
-3.8211,-5.8917,1.5579,1
-5.8117,-2.4587,4.83,1
-5.8117,-2.4587,4.83,1
-5.218,-1.6697,5.6642,1
-3.556,-1.0377,4.6008,1
0.5007,-0.515,-0.3927,1
1.0762,0.622,0.5575,1
-0.6811,1.0548,0.7334,1
-3.9818,0.5994,1.1561,1
-4.7191,0.9323,2.1453,1
-4.7766,2.1598,2.3429,1
-5.1908,2.3825,1.5088,1
-5.1908,2.3825,1.5088,1
-5.7503,1.983,1.1301,1
-6.0998,1.5707,0.7938,1
-2.9565,-0.6834,-2.0694,1
-2.9565,-0.6834,-2.0694,1
0.982,-2.535,-3.3955,1
5.1578,-3.6432,-3.5635,1
9.4253,-2.8124,-1.8949,1
10.5791,-0.6936,-3.8084,1
7.786,1.4028,-4.4491,1
2.4011,0.3372,-0.6182,1
-1.8622,-0.4702,2.7559,1
-2.6616,-2.4961,3.0478,1
-2.6228,-4.1925,2.4976,1
-3.5194,-5.9359,-1.2547,1
-3.5194,-5.9359,-1.2547,1
-2.1473,-1.3356,-1.9411,1
-2.2223,1.1065,-2.4836,1
-3.4161,0.8458,-1.1016,1
-4.9967,-0.2688,1.0475,1
-4.7477,-0.6905,1.5727,1
-2.8501,-1.439,2.94,1
-2.1185,-1.4925,4.2038,1
-2.1067,-0.6235,3.5423,1
0.3454,0.1507,1.9877,1
0.3454,0.1507,1.9877,1
2.1186,-0.1257,1.27,1
2.779,0.2515,0.6968,1
1.613,1.1117,-1.3391,1
1.613,1.1117,-1.3391,1
1.1667,0.7463,-1.974,1
0.5947,-0.3488,-2.678,1
0.4772,-0.279,-2.5047,1
0.2795,0.5622,-1.1263,1
0.7977,0.3252,-0.2692,1
1.327,-0.0287,-0.654,1
2.9869,-0.3037,-1.859,1
4.4246,-0.2709,-1.3428,1
5.1425,0.0241,-0.3679,1
5.1433,-0.6757,-0.1361,1
5.1433,-0.6757,-0.1361,1
3.6672,-1.0211,-1.1776,1
3.1237,-1.0933,-1.6965,1
3.1589,-1.3421,-1.2027,1
4.1665,-2.5033,-0.4341,1
3.9306,-1.204,-0.7282,1
4.3697,-0.2617,-1.3605,1
4.633,-0.2569,-1.3677,1
2.8159,1.0469,-2.3689,1
1.4463,-0.2396,-4.0307,1
1.3465,-0.7148,-3.8205,1
0.7659,-2.4216,-2.3457,1
-0.5596,-4.7864,-1.1009,1
-2.6166,-5.7097,0.4856,1
-5.0865,-4.2234,3.4459,1
-5.6426,-3.1517,4.888,1
-5.2902,-2.866,4.8567,1
-2.8016,-2.069,1.7485,1
0.6164,-0.2733,-0.8041,1
0.1295,0.4994,0.8309,1
-1.5108,1.1566,1.3166,1
-4.222,0.668,2.2527,1
-4.7226,1.0828,2.4985,1
-5.1576,1.8952,2.1022,1
-5.1576,1.8952,2.1022,1
-5.5187,2.1436,1.81,1
-5.8193,2.1687,1.2922,1
-5.9133,1.7765,0.5169,1
-4.6306,0.1223,-1.1215,1
-1.2219,-1.814,-2.4358,1
4.8809,-3.4917,-3.082,1
9.2295,-3.1291,-1.9301,1
9.8083,-1.0775,-1.6691,1
9.4307,2.3769,-4.8746,1
8.2774,2.3207,-4.2776,1
3.2032,-0.0188,-0.3485,1
-0.998,-3.8507,2.786,1
-4.5805,-4.6468,0.5787,1
-5.419,-4.497,-0.6743,1
-8.6113,-3.5162,-5.9066,1
-4.287,-0.5145,0.311,1
-3.0816,0.2648,1.3526,1
-1.9705,-0.3412,1.8827,1
-1.701,0.1085,2.1158,1
-2.0039,0.2951,2.2767,1
-1.6166,0.3357,2.7908,1
-1.303,-0.2174,2.8271,1
-0.4694,-0.2576,2.1479,1
0.6777,0.0882,1.429,1
1.0446,0.0323,1.2734,1
2.0051,-0.0916,0.9375,1
2.3466,0.1727,0.6242,1
1.5986,0.5948,-0.1826,1
0.7813,0.0267,-1.3029,1
0.6155,-0.24,-1.8448,1
0.4835,0.0156,-2.3748,1
0.5015,0.2883,-2.3175,1
1.2966,0.5165,-0.3356,1
1.943,0.3299,0.6708,1
1.943,0.3299,0.6708,1
2.417,0.379,-0.4227,1
3.2738,-0.1343,-1.5472,1
4.1163,-0.5115,-2.4377,1
4.0376,0.089,-1.23,1
3.5013,-0.601,-0.4655,1
2.9094,-1.0746,-0.4169,1
2.3349,-1.2877,-0.9029,1
2.5995,-1.508,-0.9631,1
4.2161,-2.6607,-0.1937,1
4.1157,-1.4865,-0.3397,1
4.6291,-0.334,-0.8724,1
4.9751,0.5209,-1.2738,1
3.4071,1.5632,-2.7246,1
1.564,0.4974,-5.0997,1
1.4615,0.0243,-4.7891,1
1.091,-1.4697,-2.36,1
0.1994,-3.7495,0.0696,1
-1.2272,-5.4348,1.235,1
-4.1948,-5.3266,3.5107,1
-5.3377,-4.3585,4.6033,1
-5.4328,-3.3576,5.4093,1
-2.6931,-1.7333,1.8487,1
1.3231,-0.8337,-2.317,1
0.7046,0.4938,1.003,1
0.7046,0.4938,1.003,1
-1.9877,0.852,1.4521,1
-5.0198,0.2266,2.3094,1
-5.7502,0.6466,2.8039,1
-5.4926,2.0048,2.2419,1
-5.4532,2.1236,1.6984,1
-5.5087,1.65,1.1924,1
-5.4536,0.6236,0.5295,1
-5.0943,-0.2495,-0.0811,1
-2.6248,-1.1652,-0.9213,1
0.4672,-1.7934,-2.1941,1
3.4564,-2.1686,-2.616,1
8.0672,-1.8211,-2.4735,1
11.4393,-0.8555,-3.7067,1
8.2981,1.7474,-2.6533,1
8.2981,1.7474,-2.6533,1
2.8368,0.1512,0.4517,1
-0.8095,-2.7415,3.3221,1
-1.8211,-4.0736,3.4088,1
-3.1207,-5.7598,1.5991,1
-6.6883,-5.378,-7.8036,1
-4.6403,-0.7722,-0.8118,1
-4.4241,1.3451,0.5001,1
-4.1488,0.7093,1.3328,1
-4.3571,-0.3284,2.3854,1
-4.3571,-0.3284,2.3854,1
-3.6627,-0.7436,2.4418,1
-2.307,-0.7464,3.0064,1
-1.7645,-0.7967,3.3151,1
-0.4103,-0.2286,2.5546,1
1.4181,-0.3782,1.8631,1
3.1088,-0.3161,1.4386,1
3.4907,0.6941,0.8736,1
2.49,1.3157,-0.3187,1
1.0082,0.5068,-1.5862,1
0.576,-0.1802,-1.7493,1
0.2664,-0.2678,-1.5953,1
-0.0589,0.5036,-0.8403,1
0.4285,0.5103,0.4163,1
0.4285,0.5103,0.4163,1
1.4986,0.0045,0.6748,1
2.4131,-0.0226,-0.0804,1
3.0522,0.1169,-1.614,1
3.1886,-0.3772,-3.2394,1
2.8054,-0.5531,-1.4894,1
2.4574,-0.6834,-0.0113,1
2.0304,-0.6314,1.153,1
2.127,-0.5644,0.6863,1
1.9842,-1.1647,-1.8457,1
1.9842,-1.1647,-1.8457,1
2.6173,-2.0712,-1.918,1
3.4276,-2.3086,-0.8501,1
3.4777,-0.5931,-0.3907,1
4.3374,0.3044,-0.4708,1
4.4292,0.2005,-0.7287,1
2.7222,0.456,-2.0814,1
1.1371,0.096,-3.9161,1
0.4627,-1.1495,-2.9178,1
-0.7507,-3.2441,0.744,1
-1.6163,-3.5018,1.935,1
-2.3977,-3.3882,3.1181,1
-3.3657,-3.2467,4.2158,1
-4.0193,-2.9383,4.7255,1
-3.9069,-2.1865,4.0176,1
-3.9069,-2.1865,4.0176,1
-1.8228,-0.574,0.3912,1
-0.2814,0.2962,-0.9025,1
0.3814,0.8254,0.2358,1
-0.0403,0.93,0.8496,1
-2.6219,-0.0687,1.7112,1
-3.2747,-0.3892,2.0044,1
-3.599,-0.2462,2.085,1
-4.8033,0.6072,1.3117,1
-5.2887,0.1474,0.106,1
-5.1846,-0.0107,0.0271,1
-4.5988,-0.2771,-0.2791,1
-2.9868,-0.5919,-0.8608,1
-1.6516,-1.0177,-1.1154,1
-0.2975,-0.9398,-0.9943,1
0.608,-0.7597,-1.1346,1
1.5794,-0.3936,-2.3996,1
3.8187,-0.9121,-4.1275,1
6.7462,-1.2406,-2.7371,1
6.496,0.9329,2.2462,1
4.8932,1.3579,3.6673,1
2.1999,1.3401,3.1699,1
0.7632,0.7036,2.2808,1
0.2528,-0.7445,1.433,1
-5.2249,-5.7938,-13.4577,1
-5.2249,-5.7938,-13.4577,1
-5.7148,-4.8319,-7.7425,1
-5.0124,-1.1735,-0.622,1
-4.5601,1.332,1.1855,1
-3.077,1.5407,1.8595,1
-2.561,0.676,2.1492,1
-1.8439,-0.4867,2.3209,1
-1.1591,-1.1884,2.2854,1
0.2345,-2.3205,2.0128,1
1.2545,-0.9842,1.4321,1
1.2867,-0.4847,1.2014,1
1.3268,0.6233,0.3699,1
1.2966,0.4425,-0.893,1
0.6863,-0.284,-1.9434,1
-0.1181,0.7578,-1.1389,1
-0.8174,1.0591,-0.2234,1
-1.1985,0.834,0.4493,1
-1.0843,-0.5115,2.1959,1
-0.8201,-1.5172,2.5546,1
0.0688,-0.8047,0.5233,1
0.0688,-0.8047,0.5233,1
0.8605,-0.4078,-0.2347,1
1.3298,-0.1177,-1.0291,1
1.4779,0.5899,-2.5284,1
1.5743,0.5892,-2.2996,1
1.6958,0.7099,-1.6271,1
1.5496,0.8305,-0.4361,1
1.4152,0.4517,0.9524,1
1.5973,-0.1654,1.9296,1
1.2795,-0.1713,0.9351,1
1.3375,-0.0337,-0.357,1
1.4234,-0.0502,-0.5945,1
1.9393,-0.3972,-2.3267,1
1.7522,-0.8806,-2.712,1
1.6958,-1.8658,-0.9644,1
1.6958,-1.8658,-0.9644,1
1.8246,-2.758,-0.2512,1
1.4069,-2.9103,0.1476,1
0.0397,-1.4903,0.2253,1
0.8192,-0.0184,-1.0917,1
2.0099,0.0216,-2.1846,1
2.8127,0.0488,-3.1005,1
3.1547,0.5091,-3.4603,1
3.168,0.7627,-2.4664,1
3.0281,0.7592,-0.8903,1
3.0114,0.5829,-0.487,1
2.848,-0.4645,0.6853,1
2.0031,-2.3025,1.7985,1
-0.1334,-4.3845,2.6604,1
-2.8191,-4.7714,3.9417,1
-4.2122,-4.464,5.1452,1
-5.0558,-2.8364,5.5284,1
-2.6432,-1.3046,0.7928,1
-0.3504,0.0085,-2.2271,1
-2.6396,0.4087,0.3638,1
-3.8084,0.7246,1.4822,1
-4.4193,1.2267,2.3427,1
-3.6818,1.9946,2.2378,1
-3.1867,2.0525,1.298,1
-3.1867,2.0525,1.298,1
-3.8289,0.9121,0.5134,1
-4.5879,0.2781,0.006,1
-5.622,-0.0122,-0.7242,1
-5.2831,-0.3405,-1.2773,1
-2.6793,-0.6873,-0.7885,1
0.4587,-1.0098,-1.0469,1
5.9317,-0.6767,-1.671,1
8.9714,-0.5853,-2.4431,1
9.4174,1.709,-1.6693,1
9.4174,1.709,-1.6693,1
4.5021,1.9791,1.485,1
0.4054,0.4678,1.4856,1
-2.5434,-12.1066,-1.578,1
-3.3481,-12.1432,-1.6531,1
-5.6607,-4.1439,0.196,1
-6.2519,-1.2981,-0.1312,1
-6.2386,1.1115,-0.0865,1
-5.2907,0.7912,0.8348,1
-4.2442,-0.3528,1.5635,1
-3.9822,-0.8859,2.1301,1
-3.4003,-1.3953,2.2856,1
-1.2489,-2.0026,2.0558,1
0.2928,-0.8598,1.8058,1
2.5177,0.5987,1.8318,1
2.5177,0.5987,1.8318,1
4.0363,1.0155,2.0551,1
