accx,accy,accz,label
0.2315,0.9078,2.5022,1
1.5029,0.1719,0.7958,1
2.1359,-1.2624,-0.2408,1
2.2817,-2.3671,-0.8033,1
3.3344,-3.4744,-1.9371,1
3.7862,-3.0707,-4.2986,1
6.0715,-1.0006,-8.6905,1
6.8283,-0.9271,-7.6002,1
7.3047,-2.2681,-5.2773,1
7.4817,-2.7726,-4.5609,1
8.1419,-4.9736,-0.7877,1
8.3015,-5.8175,0.0719,1
9.4696,-5.2929,-2.4327,1
9.3547,0.5264,-6.0189,1
7.8962,2.7274,-5.3719,1
5.0836,2.2402,-4.9351,1
3.0195,-3.1922,-2.466,1
-1.1733,-10.415,0.2359,1
-9.4556,-15.4733,7.5241,1
-9.6604,-14.7915,9.3142,1
-7.7484,-9.4458,8.0633,1
-7.7467,-5.2414,4.7122,1
-6.152,5.0403,1.8454,1
-6.152,5.0403,1.8454,1
-6.0653,7.5108,-2.0297,1
-6.631,7.852,-4.7591,1
-8.0209,4.6274,-4.5868,1
-8.6324,2.1943,-1.4693,1
-9.3257,1.6869,2.1416,1
-9.273,2.1043,2.1624,1
-6.4555,1.6864,1.944,1
-5.0833,-3.1194,-5.091,1
9.8038,-9.7576,-1.4571,1
15.7375,-13.6371,-0.9041,1
15.7375,-13.6371,-0.9041,1
12.0134,-6.5405,0.2094,1
9.3505,-2.5185,-0.0747,1
5.1569,-0.7751,-0.1489,1
0.6104,3.2295,0.6659,1
-1.1051,4.34,-0.5851,1
-2.2882,1.0395,-1.9161,1
-2.2476,-0.4121,-1.9356,1
-2.6339,-0.786,-1.2287,1
-3.4029,-2.4048,-0.0642,1
-3.4029,-2.4048,-0.0642,1
-3.5037,-3.0477,-0.0341,1
-4.0339,-1.5488,0.193,1
-2.8465,1.5387,0.8785,1
-2.8465,1.5387,0.8785,1
-1.1542,1.1399,1.5476,1
0.2783,1.5541,2.8752,1
0.1965,2.0768,5.0857,1
-0.525,1.2,5.5812,1
-0.9471,0.6192,2.7083,1
0.4558,0.7693,1.0629,1
1.3276,0.8567,0.0571,1
1.791,-0.2404,-0.5222,1
2.5362,-1.9394,-0.9962,1
2.6756,-2.0811,-1.3051,1
2.9949,-2.4984,-2.2035,1
3.1953,-2.3815,-3.1508,1
3.751,-1.4313,-3.1103,1
7.375,-2.344,-5.3676,1
7.8394,-2.7745,-5.1339,1
8.5633,-3.7964,-4.5035,1
9.7943,-6.0082,-2.5424,1
11.7501,-3.9518,-4.3512,1
11.468,1.0719,-6.7308,1
11.468,1.0719,-6.7308,1
8.994,3.3438,-5.5827,1
5.3186,-0.427,-3.3048,1
-1.7477,-13.6122,1.0471,1
-3.392,-15.0067,2.1439,1
-6.1715,-16.4021,4.6783,1
-8.9419,-13.5911,7.2869,1
-7.7137,-6.7294,3.5074,1
-7.65,-1.3096,2.1782,1
-6.5255,4.994,-0.1379,1
-6.9375,7.1089,-2.2029,1
-8.1656,7.8708,-3.5715,1
-10.9562,5.6494,-3.2451,1
-10.9705,2.3959,-0.9177,1
-10.0283,2.4636,0.9602,1
-10.0283,2.4636,0.9602,1
-7.9645,2.3964,0.9967,1
-6.7555,0.9543,-0.2066,1
0.329,-4.8089,-7.4557,1
17.7117,-14.2763,0.1438,1
16.8596,-15.8719,-0.5646,1
12.896,-6.7065,0.0635,1
6.685,1.6871,-0.5686,1
3.8996,1.5175,-0.2842,1
-0.102,1.7994,-0.4523,1
-0.102,1.7994,-0.4523,1
-0.6508,-2.0408,-2.5683,1
-2.5712,-2.6272,-3.1418,1
-3.8452,-1.7724,-2.2789,1
-4.1975,-0.7863,-0.533,1
-4.6241,-0.9741,-0.2697,1
-4.2147,-1.8292,-0.2617,1
-4.0973,-1.4484,0.2706,1
-4.0331,-0.0042,0.617,1
-2.6225,1.2143,1.5935,1
-1.3447,0.9624,2.1945,1
0.5084,1.3404,4.9773,1
0.5717,2.2387,6.575,1
-0.8961,1.889,3.5627,1
-1.5772,1.0846,2.561,1
-1.5772,1.0846,2.561,1
1.0716,0.7219,0.8792,1
1.8767,0.4905,0.4157,1
2.4254,-1.1443,-0.1182,1
2.9743,-3.6674,-1.078,1
4.2052,-4.115,-2.8484,1
4.7245,-3.5038,-3.9656,1
8.0025,-2.0104,-7.8783,1
7.8985,-1.3791,-7.1125,1
9.006,-2.1207,-4.5275,1
9.2477,-2.7182,-3.8085,1
10.2099,-5.0302,-0.0109,1
11.036,-5.9832,-0.6769,1
12.6292,-4.6242,-4.8514,1
9.3491,1.4852,-5.6434,1
6.205,1.9071,-4.448,1
4.419,-2.0269,-2.5281,1
1.9038,-7.163,-1.4147,1
-3.867,-14.5086,1.9178,1
-8.5325,-14.4924,7.1756,1
-7.7389,-8.2149,6.1766,1
-6.7467,-3.6818,3.467,1
-6.2708,1.0779,2.6248,1
-5.5073,4.8112,1.5868,1
-6.0012,8.1372,-1.076,1
-6.4104,8.3664,-1.6707,1
-7.6207,8.1132,-3.0316,1
-9.8138,5.3742,-2.9581,1
-10.8122,3.1817,-1.1137,1
-9.8657,2.5114,1.7252,1
-8.1586,1.3921,-0.3863,1
-6.2307,-2.9707,-11.7617,1
4.9339,-6.3861,0.3227,1
15.0127,-12.6602,0.7578,1
12.2206,-8.7245,0.8983,1
12.2206,-8.7245,0.8983,1
7.8745,-0.4475,1.1139,1
4.9802,1.6919,0.9657,1
2.6721,2.3412,0.4913,1
0.8298,-2.9523,-3.2954,1
-0.9892,-4.3195,-4.4961,1
-2.9639,-1.8451,-3.843,1
-2.9065,-0.0595,-1.7614,1
-3.5052,1.1937,-0.556,1
-4.7018,-0.7956,-0.0391,1
-4.7018,-0.7956,-0.0391,1
-5.4642,-2.1406,-0.0346,1
-5.3349,-1.1347,0.5967,1
-1.5667,1.4168,2.5249,1
-1.1199,1.464,3.0655,1
0.0112,2.0247,6.3864,1
1.1115,2.7701,6.8495,1
-2.4306,2.2396,4.4185,1
-2.0731,2.0445,3.8939,1
1.3052,0.861,1.4658,1
2.0136,0.0548,0.3989,1
2.1362,-1.3387,-0.2712,1
2.744,-3.8908,-1.2847,1
3.5365,-4.8605,-1.5802,1
5.8981,-3.4931,-6.7054,1
5.8981,-3.4931,-6.7054,1
7.4342,-1.7593,-8.5513,1
7.7731,-1.6038,-8.4424,1
9.7586,-2.8984,-5.5812,1
9.784,-5.4914,-0.3189,1
10.9478,-6.7145,0.8002,1
13.0693,-5.1357,-4.5038,1
10.9184,-0.7992,-6.2645,1
6.9855,0.2111,-4.8907,1
6.9855,0.2111,-4.8907,1
4.3088,-3.9705,-2.6565,1
0.9763,-9.2944,-1.7286,1
-9.1266,-13.5864,6.282,1
-9.1266,-13.5864,6.282,1
-8.6852,-7.1932,4.8846,1
-7.7583,-3.8134,3.3198,1
-6.5434,2.5021,1.8062,1
-5.6114,5.7415,0.3714,1
-6.3486,8.2362,-2.4335,1
-8.38,7.2618,-3.521,1
-9.6381,4.945,-2.9559,1
-10.8868,2.3423,-0.6014,1
-10.1585,2.3694,1.0033,1
-7.5876,1.0036,-1.4528,1
-7.5876,1.0036,-1.4528,1
1.7431,-4.0269,-14.9018,1
11.8258,-8.6669,-2.3056,1
17.1314,-13.7803,0.7833,1
13.2413,-8.0208,0.3957,1
7.817,-0.4622,-0.0109,1
5.6248,0.939,0.6661,1
2.4842,2.3159,-0.1099,1
0.7698,-0.7036,-3.3599,1
-2.1475,-2.1345,-4.3784,1
-2.1475,-2.1345,-4.3784,1
-3.2483,-1.5646,-3.1442,1
-3.5758,-0.2182,-1.639,1
-3.6731,-0.71,-0.8143,1
-3.6167,-0.8017,-0.7638,1
-2.9943,-0.23,-0.1967,1
-2.8045,0.3303,0.0627,1
-1.7309,1.3122,0.426,1
-0.9565,1.2174,2.726,1
0.3054,0.6673,6.9842,1
0.5948,1.8264,4.9533,1
-0.7458,1.7479,3.7871,1
-0.4634,1.4408,2.4092,1
1.5771,0.8696,1.7688,1
2.4359,0.2033,-0.0603,1
2.4359,0.2033,-0.0603,1
2.4855,-1.5512,-0.7119,1
2.9523,-3.0279,-1.5886,1
3.8107,-4.2647,-3.5602,1
6.8352,-3.0695,-7.5597,1
8.4578,-2.3505,-8.4345,1
9.3044,-1.9939,-7.6088,1
9.9324,-2.4716,-4.9085,1
10.5124,-5.7793,1.2964,1
12.8159,-7.0207,-2.9555,1
13.0291,-6.4686,-4.4127,1
11.8489,-2.1816,-6.7149,1
10.2952,1.0538,-6.3769,1
7.2471,0.6381,-5.8343,1
3.2906,-6.7593,-2.6728,1
-0.5193,-12.7648,-0.2295,1
-6.1151,-15.198,2.4963,1
-9.1207,-12.8221,8.0699,1
-7.1052,-6.1385,5.1593,1
-5.953,-0.3883,3.3535,1
-5.3212,3.7477,2.2601,1
-4.6529,6.9829,-0.0389,1
-5.2282,8.7322,-3.0146,1
-6.859,8.7247,-4.5713,1
-8.9423,4.0811,-2.3073,1
-9.0474,3.4802,-1.752,1
-9.4592,2.552,-0.1246,1
-9.3511,2.8221,1.1967,1
-6.3335,2.1012,1.8752,1
2.99,-5.4775,-13.2236,1
14.7069,-10.3632,-3.4542,1
15.6618,-13.4855,-1.3801,1
15.5867,-13.0927,0.0354,1
13.635,-7.5633,-0.1033,1
6.8446,-0.5481,-0.0065,1
5.9559,-0.0008,0.065,1
2.3722,3.3221,-0.7155,1
0.9579,1.7727,-3.3541,1
-0.4404,-0.612,-3.5192,1
-2.9643,-1.2626,-2.0973,1
-3.1349,-1.1806,-1.0709,1
-3.6054,-1.2924,-1.1953,1
-3.8125,-2.4651,-0.9927,1
-3.5814,-1.3745,-1.0269,1
-3.329,1.2674,0.2856,1
-3.329,1.2674,0.2856,1
-1.0323,2.0277,1.5973,1
-0.3521,1.6769,1.503,1
1.2335,1.9251,4.7541,1
0.7061,1.8296,3.8497,1
-1.2452,1.0359,3.0508,1
-0.6563,1.0584,3.0508,1
1.4312,0.7193,0.8188,1
2.5575,0.5773,-0.0935,1
2.6411,-1.8299,-1.1757,1
3.8038,-3.6001,-2.8336,1
4.2868,-4.382,-3.7974,1
7.0137,-3.6723,-7.8446,1
7.7658,-1.9795,-8.3484,1
7.8627,-1.9514,-8.0502,1
8.6338,-1.9202,-6.0057,1
9.4882,-3.381,-3.4841,1
11.1856,-6.0888,1.8459,1
13.5186,-6.9808,-2.4633,1
12.2105,-1.7361,-7.2792,1
10.8788,0.4018,-7.7115,1
7.6244,2.2569,-7.566,1
4.4791,-4.6993,-4.4345,1
-0.0542,-13.2193,-1.0895,1
-8.064,-16.0293,5.3634,1
-8.064,-16.0293,5.3634,1
-8.4821,-11.6157,7.1269,1
-5.738,-0.2083,2.2317,1
-5.5862,0.9145,2.0719,1
-5.3078,3.2472,1.7614,1
-4.8437,6.9073,-0.7429,1
-5.4458,9.1514,-3.7748,1
-7.3596,8.6592,-4.6028,1
-8.6791,3.0468,-1.0437,1
-9.1598,2.4518,1.3699,1
-8.569,3.3741,2.2001,1
-6.3002,3.5773,1.5307,1
-4.7813,1.6842,-0.5264,1
12.7497,-8.8821,-6.082,1
16.9154,-15.1783,-0.3015,1
16.9154,-15.1783,-0.3015,1
15.3757,-14.5114,0.2835,1
11.0961,-3.6918,-0.1889,1
5.2353,-0.4855,-0.08,1
1.4211,3.505,-1.3159,1
0.4421,3.0187,-3.0759,1
-1.113,-0.2557,-4.0044,1
-1.8564,-1.088,-3.2934,1
-2.5103,-0.5457,-1.1844,1
-2.7116,-0.9044,-0.8361,1
-2.7116,-0.9044,-0.8361,1
-3.0029,-1.5093,-0.7707,1
-2.4715,0.2678,0.3992,1
-2.4715,0.2678,0.3992,1
-1.6253,0.6765,0.6798,1
0.0157,0.69,1.0876,1
2.4633,1.3816,4.4036,1
1.3156,2.0189,4.6298,1
-0.4318,1.8453,3.2228,1
0.2393,1.5797,2.8099,1
0.9069,1.3082,1.8834,1
2.308,0.4359,0.4618,1
2.4481,-0.4692,-0.2054,1
3.3215,-2.2982,-3.1501,1
3.3215,-2.2982,-3.1501,1
3.1765,-3.1973,-4.2,1
3.2787,-3.0143,-4.3723,1
6.9911,-2.4129,-7.8201,1
7.9892,-2.6501,-7.1566,1
9.0861,-3.3981,-2.3383,1
9.0826,-4.6652,-0.0277,1
10.4239,-5.9568,0.1092,1
12.4772,-5.3996,-4.1545,1
11.3853,-0.2992,-7.4804,1
10.872,0.6929,-7.2516,1
8.7218,3.4484,-6.4752,1
6.3399,-1.8551,-5.6006,1
-2.0279,-14.2805,0.7695,1
-3.4868,-15.5211,1.9605,1
-8.6086,-15.074,7.2995,1
-8.9275,-11.2337,6.5294,1
-7.3225,-5.689,3.7781,1
-6.024,0.4415,1.9279,1
-5.1554,5.1034,-0.6838,1
-5.7066,7.9857,-3.9688,1
-5.7066,7.9857,-3.9688,1
-6.9919,8.5138,-5.988,1
-8.9233,2.3125,-0.1877,1
-9.1201,2.3571,0.4413,1
-9.4127,3.8975,2.0422,1
-9.1707,3.9565,1.9546,1
-6.8027,3.2028,0.6437,1
2.9063,-4.4351,-20.8911,1
16.5241,-12.2008,0.9909,1
14.8081,-13.4916,0.8389,1
12.6354,-8.4843,1.3927,1
8.0247,-1.076,0.538,1
3.7615,0.2313,-1.1902,1
0.3686,3.1519,-1.2943,1
-0.202,3.5466,-2.0958,1
-1.5978,-1.0229,-5.1731,1
-2.2394,-0.9333,-4.9677,1
-2.9169,-0.5909,-1.1836,1
-2.9169,-0.5909,-1.1836,1
-3.3024,-1.9477,-0.6653,1
-3.1565,-2.2708,-0.5632,1
-2.7409,-1.9083,-0.0145,1
-1.8665,-0.4513,0.7699,1
-0.5925,0.3273,1.1361,1
-0.226,0.402,2.1089,1
0.772,0.4643,2.5386,1
2.5903,0.9043,6.018,1
0.4187,2.6664,3.4666,1
0.4615,2.6404,3.2289,1
0.6358,2.5309,2.7219,1
1.4107,2.2253,2.1224,1
2.5635,0.7722,1.1821,1
2.7839,-0.95,0.5037,1
4.4161,-2.3389,-2.0604,1
4.5111,-2.8134,-2.7633,1
4.3259,-3.2221,-3.7642,1
6.5236,-1.8464,-6.4153,1
7.5364,-1.6146,-6.1353,1
7.5364,-1.6146,-6.1353,1
8.9569,-2.3672,-3.2402,1
9.049,-3.6652,-0.1723,1
10.2135,-4.6651,-5.1346,1
10.2135,-4.6651,-5.1346,1
10.7984,-1.0117,-7.92,1
9.1432,1.6091,-6.1836,1
6.8205,3.3753,-4.6044,1
3.8315,-2.891,-1.7889,1
-0.6624,-12.4805,0.5823,1
-8.8508,-16.3257,9.0717,1
-8.8508,-16.3257,9.0717,1
-8.474,-13.5297,8.9665,1
-6.8214,-5.7973,4.3925,1
-6.0551,0.729,2.4491,1
-5.7646,3.694,1.2878,1
-5.215,5.9098,0.0425,1
-5.6597,8.204,-3.2978,1
-7.6476,7.6939,-5.2993,1
-9.4577,3.5487,-2.0219,1
-9.8742,2.6911,0.4563,1
-9.4239,2.4826,0.9139,1
-8.1437,1.3101,-2.2462,1
-0.7618,-3.801,-5.2728,1
13.767,-11.1875,0.7254,1
13.767,-11.1875,0.7254,1
13.6206,-11.2858,0.3495,1
11.8985,-7.6493,0.6606,1
4.7681,1.4143,0.1982,1
3.8976,1.2139,-0.8656,1
0.4902,1.422,-3.1254,1
-0.1289,1.576,-3.2706,1
-2.3028,-0.4475,-3.5456,1
-2.6175,-2.3435,-3.2445,1
-2.4189,-1.1861,-1.9404,1
-1.5209,0.6984,-1.0172,1
-1.5209,0.6984,-1.0172,1
-0.9649,1.4391,-0.4586,1
0.1997,1.1601,0.3303,1
0.2583,0.8659,0.4135,1
0.1326,-0.1468,1.3537,1
-0.3311,-0.6063,2.1323,1
0.067,-1.0201,11.634,1
-2.9683,-1.1796,8.3547,1
-3.7062,0.4905,3.3668,1
-1.7037,0.8728,1.6286,1
-1.1302,1.4031,1.0754,1
0.4504,1.468,-1.8718,1
0.9745,0.4283,-2.5227,1
1.3641,-1.1481,-2.0948,1
1.3641,-1.1481,-2.0948,1
1.9642,-1.486,-0.8604,1
2.5938,-1.273,0.2094,1
4.4738,-0.4304,-4.7635,1
4.3426,-0.2181,-4.7835,1
3.9336,-0.0772,-3.8236,1
3.9872,-0.3374,-3.3348,1
3.8565,-2.6112,-0.7513,1
4.2993,-4.0342,0.6134,1
4.2991,-4.4123,0.0287,1
4.5076,-0.9636,-0.7925,1
4.545,-0.5368,-0.9832,1
4.9684,0.6486,-1.9408,1
7.3529,2.5981,-5.2033,1
7.3529,2.5981,-5.2033,1
6.7634,1.5396,-2.7458,1
5.1443,-0.2347,-1.0095,1
1.6102,-3.9403,0.4246,1
-4.1752,-11.891,6.8922,1
-7.0413,-11.8976,8.2422,1
-7.1503,-4.7637,5.9376,1
-6.5623,-3.6064,5.1149,1
-4.57,1.7244,0.9508,1
-4.3197,4.9524,-4.3285,1
-4.1747,6.5935,-8.6441,1
-4.6231,6.1284,-7.3343,1
-6.4354,4.2033,-0.6895,1
-6.3647,2.5471,1.0373,1
-7.5078,1.7901,2.2372,1
-7.7122,2.7178,4.0619,1
-4.5655,2.094,3.911,1
-4.0238,1.8221,3.7454,1
-1.7291,-0.2801,2.4981,1
3.3547,-5.6945,1.1298,1
10.4751,-10.9624,-4.6276,1
13.8657,-8.6944,-1.3458,1
13.7597,-6.5946,-1.7998,1
11.9711,-2.2112,-2.9218,1
1.4596,1.2014,0.058,1
1.4596,1.2014,0.058,1
-1.268,-2.3148,0.8879,1
-2.0329,-3.727,0.8149,1
-3.5988,-4.7311,1.0071,1
-3.624,-1.9285,-0.5404,1
-3.1588,-0.0985,-0.4628,1
-3.0802,0.4914,-0.3267,1
-3.4603,0.9076,0.0363,1
-3.3794,0.0364,0.6715,1
-4.6599,0.3083,1.431,1
-4.6599,0.3083,1.431,1
-2.6714,1.1795,1.8281,1
-2.3101,1.2383,1.9412,1
-0.681,-0.6896,4.4534,1
-0.681,-0.6896,4.4534,1
1.0118,-0.1972,5.3136,1
0.774,0.199,3.3703,1
0.7152,0.8844,2.2068,1
1.0357,0.3251,1.9432,1
1.6071,-0.2233,0.875,1
2.2074,-0.8423,-0.4398,1
2.2074,-0.8423,-0.4398,1
2.5574,-1.1595,-0.9332,1
3.8151,-0.809,-2.1144,1
3.8151,-0.809,-2.1144,1
3.949,0.0221,-3.3262,1
