accx,accy,accz,label
0.2021,0.0391,0.0825,6
0.0036,0.1924,0.0083,6
0.6653,0.5864,-0.3467,6
1.1254,0.4375,-0.5533,6
1.1295,0.3212,-0.672,6
0.5413,-0.5659,-0.2528,6
0.7302,0.2887,0.6983,6
0.8375,-0.1267,0.5234,6
0.7518,0.0761,0.4624,6
0.7518,0.0761,0.4624,6
0.7014,0.2308,0.4393,6
0.8666,-0.1036,0.8423,6
0.9228,0.1721,0.0164,6
0.2073,-0.0067,0.242,6
0.2073,-0.0067,0.242,6
0.6028,0.1855,0.5512,6
0.7034,0.1968,0.4513,6
0.7795,0.12,0.3646,6
0.6134,0.0608,0.0306,6
0.5981,0.0253,-0.0148,6
0.7884,0.0844,-0.0721,6
0.8017,0.0554,-0.0388,6
0.9297,0.0961,-0.1598,6
0.7845,0.0558,-0.3382,6
0.7639,0.0077,-0.2345,6
0.7231,-0.1743,0.1263,6
0.9263,-0.0448,0.3586,6
0.8847,-0.121,0.6422,6
0.4912,0.1094,0.4276,6
0.6457,0.188,0.0769,6
0.8165,0.2736,0.1305,6
0.6856,0.2635,-0.1309,6
0.5571,0.1757,-0.3074,6
0.5571,0.1757,-0.3074,6
0.4795,0.0908,-0.0654,6
0.693,0.1872,-0.0157,6
0.7976,-0.2114,0.6488,6
0.7786,-0.0583,0.8204,6
0.6975,0.1666,0.2086,6
0.5317,0.1541,0.0982,6
0.7376,0.2573,-0.0872,6
0.6574,0.3206,-0.1326,6
0.5614,0.07,0.0817,6
0.793,0.0729,0.1879,6
0.793,0.0729,0.1879,6
0.8572,0.0231,0.2919,6
0.7539,-0.036,0.4177,6
0.8524,-0.1067,0.2879,6
0.8661,0.0232,0.2766,6
0.928,0.037,0.3953,6
0.8058,-0.0123,0.4155,6
0.5724,-0.0365,0.2817,6
0.4311,-0.0775,0.1266,6
0.9182,0.0012,0.2351,6
0.9182,0.0012,0.2351,6
1.165,0.0059,0.3398,6
1.1521,-0.0133,0.1642,6
0.906,-0.2514,0.1455,6
0.8833,-0.2659,0.0618,6
0.9654,-0.1801,0.0386,6
0.7747,-0.1801,0.017,6
0.3291,-0.3015,0.0134,6
0.9481,0.3807,-0.2103,6
1.0754,0.3293,-0.3149,6
0.6263,0.3141,-0.1666,6
0.8359,0.2512,-0.3134,6
0.6659,0.3812,0.1414,6
0.6175,0.1232,0.4045,6
0.6528,-0.0283,0.4739,6
0.8869,-0.0395,0.5893,6
0.755,-0.1315,0.3684,6
0.9043,0.0901,-0.0638,6
1.0205,0.4374,-0.3681,6
0.8682,0.3307,-0.3688,6
0.571,0.1955,-0.2857,6
0.7143,0.2084,0.0714,6
0.923,0.2259,0.1634,6
1.0557,0.3078,-0.1825,6
1.0557,0.3078,-0.1825,6
0.5756,0.2124,-0.157,6
0.3564,0.1632,0.0287,6
0.2227,-0.0736,1.1631,6
0.2227,-0.0736,1.1631,6
0.0823,-0.1453,1.1507,6
0.0163,-0.1457,1.075,6
0.2269,0.0443,0.9719,6
0.6363,0.4704,0.8524,6
0.3711,0.4095,0.6291,6
0.3841,0.0896,0.3822,6
0.3165,-0.1689,0.6672,6
0.3231,-0.1214,1.1253,6
0.498,-0.1401,1.266,6
1.0439,-0.1139,0.2553,6
1.0439,-0.1139,0.2553,6
0.9346,0.2165,-0.3359,6
0.8396,0.8911,-0.9956,6
0.9715,0.906,-1.1919,6
1.8468,0.8773,-1.7301,6
1.6246,0.8058,-1.831,6
1.0516,0.1965,-1.1589,6
0.7921,-0.2443,0.0833,6
-0.0876,-0.3182,0.577,6
1.0095,0.3998,-0.1741,6
1.0095,0.3998,-0.1741,6
1.4083,0.5414,-0.5934,6
1.4104,0.5016,-0.2927,6
1.1052,0.0265,0.0817,6
0.5444,-0.4443,1.3058,6
0.7556,-0.5139,1.999,6
1.5468,-0.5232,2.4485,6
1.6793,-0.1761,2.0054,6
1.8286,0.1917,0.9694,6
1.8988,0.2201,-0.2514,6
1.8988,0.2201,-0.2514,6
0.9344,0.0012,-0.574,6
0.6007,0.1878,-0.3741,6
0.1771,-0.1042,-0.4219,6
-0.388,-0.4796,-0.2475,6
-0.388,-0.4796,-0.2475,6
-0.6128,-0.4982,-0.3174,6
-0.7815,-0.5522,-0.1295,6
-0.9324,-0.7005,0.1843,6
-0.6578,-0.551,0.6851,6
-0.3618,-0.4303,0.8287,6
-0.0662,0.0208,0.3128,6
0.0785,0.2468,-0.5921,6
0.1416,0.2392,-0.7515,6
-0.016,0.0308,-0.3712,6
-0.0112,0.0009,-0.2847,6
0.3017,-0.1523,0.1052,6
0.4702,-0.1984,0.6819,6
0.5462,-0.0558,1.0921,6
0.4586,-0.1812,0.8312,6
0.427,-0.3384,0.5429,6
0.6483,-0.2259,0.3888,6
1.1952,0.0536,0.4976,6
1.6925,0.164,0.8503,6
1.6667,0.2116,0.7664,6
1.5246,0.2365,0.5707,6
1.1588,0.2123,-0.049,6
0.8739,0.2744,-0.1953,6
0.66,0.1169,-0.0969,6
0.7497,-0.1082,0.4048,6
0.7458,-0.0551,0.519,6
0.6506,-0.0274,0.6544,6
0.5691,-0.0042,0.3698,6
0.7179,0.041,0.1156,6
0.703,0.3396,0.0481,6
0.783,0.419,-0.0674,6
0.7693,0.3497,-0.1554,6
0.7528,0.2077,0.0137,6
0.8518,0.3523,0.0049,6
0.8211,0.1458,0.0906,6
0.8211,0.1458,0.0906,6
0.6609,0.024,0.1868,6
0.7639,0.055,0.3008,6
0.9051,0.253,0.3454,6
0.8149,0.4958,0.0903,6
0.759,0.285,-0.1443,6
0.5459,0.2703,-0.2734,6
0.3944,0.2103,-0.3215,6
0.4127,0.0274,-0.2039,6
0.4116,0.0111,-0.2057,6
0.4116,0.0111,-0.2057,6
0.4298,-0.0391,-0.2146,6
0.4705,-0.0558,-0.0704,6
0.6628,-0.199,0.0904,6
0.6628,-0.199,0.0904,6
0.6809,-0.1256,0.0614,6
0.7215,0.0199,0.2466,6
0.9983,0.1465,0.585,6
1.0532,0.2803,0.6088,6
1.0048,0.2823,0.383,6
0.9268,0.1915,0.3763,6
0.7813,0.0937,0.5941,6
0.7116,0.1176,0.6906,6
0.6533,0.1521,0.6604,6
0.6094,0.136,0.6147,6
0.5365,0.1147,0.5175,6
0.4722,0.0683,0.3212,6
0.5909,0.0879,0.1588,6
0.5646,0.162,0.1947,6
0.7566,0.2098,0.1992,6
0.8825,0.1092,0.1673,6
0.6465,-0.0153,-0.0242,6
0.6977,0.0839,-0.1408,6
0.7687,0.075,0.3112,6
0.7687,0.075,0.3112,6
0.8638,0.0585,0.2508,6
1.0158,0.2293,0.0542,6
0.5942,0.2223,0.0674,6
0.5942,0.2223,0.0674,6
0.9278,0.3455,0.1195,6
1.0088,0.1416,0.3228,6
0.6493,-0.0009,0.2519,6
0.6357,-0.0247,0.0998,6
0.3505,-0.1122,0.3252,6
0.4871,0.0037,0.3239,6
0.7039,0.1656,0.1436,6
0.7306,0.1539,0.1093,6
0.8944,0.2995,-0.0225,6
0.7935,0.1282,0.0229,6
0.7935,0.1282,0.0229,6
0.6253,0.0328,0.3214,6
0.7077,-0.0303,0.3788,6
0.6663,-0.0313,0.5745,6
0.7873,0.0332,0.3903,6
0.7247,0.0758,0.2935,6
0.7015,0.0976,0.1405,6
0.7433,0.1326,-0.0255,6
0.6733,0.1542,-0.0809,6
0.7247,0.1868,-0.0336,6
0.7247,0.1868,-0.0336,6
0.7303,0.0925,0.2187,6
0.6806,0.1048,0.1253,6
0.552,0.0579,0.0572,6
0.5504,0.0939,0.0652,6
0.6425,0.1641,0.0312,6
0.5933,0.0448,0.1999,6
0.6054,0.1714,0.3469,6
0.7039,0.0859,0.4577,6
0.6475,0.1275,0.4561,6
0.7098,0.2199,0.3048,6
0.7539,0.1501,-0.0128,6
0.5431,0.026,0.1468,6
0.6748,0.0458,0.3009,6
0.71,-0.0754,0.6952,6
0.71,-0.0754,0.6952,6
0.7445,-0.096,0.6045,6
0.8276,0.0939,0.2349,6
0.8325,0.325,-0.1211,6
0.8325,0.3087,-0.2238,6
0.8113,0.1584,-0.1119,6
0.7848,0.0686,0.2031,6
0.8014,0.0355,0.3701,6
0.7173,-0.0372,0.3617,6
0.6818,0.0871,0.0767,6
0.7178,0.069,0.0533,6
0.674,0.1361,-0.0675,6
0.7507,0.198,-0.1063,6
0.7962,0.2578,-0.0641,6
0.8238,0.2309,0.1973,6
0.8333,0.1636,0.2344,6
0.7619,0.1381,0.2098,6
0.5791,0.0084,0.0979,6
0.4674,-0.0292,0.1371,6
0.594,0.0786,0.0077,6
0.5815,0.0792,-0.0722,6
0.4886,-0.0174,-0.1815,6
0.4965,-0.045,-0.0472,6
0.3888,0.0046,-0.0382,6
0.3888,0.0046,-0.0382,6
0.3807,0.0381,0.0299,6
0.5171,0.1548,0.0418,6
0.759,0.2868,0.0806,6
0.8262,0.2707,0.1625,6
0.7819,0.1079,0.5692,6
0.9218,0.0581,0.7439,6
0.963,0.0705,0.5871,6
0.9154,-0.0366,0.4559,6
0.9725,0.0517,0.4023,6
1.1061,0.1784,0.3423,6
1.1,0.1905,0.3044,6
1.0187,0.241,0.2534,6
1.0052,0.246,0.2521,6
0.9219,0.1429,0.253,6
0.741,0.1836,0.0132,6
0.6495,0.1688,-0.0206,6
0.54,0.1539,-0.0574,6
0.478,0.0351,0.0663,6
0.5339,-0.0068,0.1232,6
0.6557,0.0973,0.0456,6
0.6557,0.0973,0.0456,6
0.639,0.0966,-0.0167,6
0.6597,0.0557,-0.0573,6
0.7591,0.0815,-0.068,6
0.8124,0.1365,-0.0595,6
0.799,0.0864,0.0029,6
0.7823,0.0703,0.2639,6
0.8603,0.0077,0.3179,6
0.7323,0.0226,0.2626,6
0.6815,0.0997,0.2323,6
0.7336,0.1136,0.2318,6
0.7786,0.1745,0.2423,6
0.6633,0.2198,0.0944,6
0.474,0.1582,0.0464,6
0.4704,0.1632,0.1696,6
0.5209,0.1678,0.1604,6
0.6143,0.1704,0.1235,6
0.6396,0.1523,0.0815,6
0.7293,0.0991,-0.002,6
0.6856,0.0839,0.0971,6
0.6655,0.0235,0.2595,6
0.6432,0.1125,0.4742,6
0.7411,0.0737,0.3455,6
0.7077,0.1089,0.2337,6
0.8305,0.0917,0.1861,6
0.8966,0.2013,0.0016,6
0.7023,0.2212,-0.0923,6
0.3934,0.0719,-0.045,6
0.3934,0.0719,-0.045,6
0.3702,-0.015,0.0803,6
0.4626,-0.037,0.0326,6
0.6706,0.073,-0.0811,6
0.7735,0.0858,-0.1449,6
0.8887,-0.0344,0.1338,6
0.7915,-0.0854,0.1931,6
0.9222,0.0466,0.1457,6
1.0335,0.0822,0.1485,6
0.9574,0.1272,0.2285,6
0.9359,0.0983,0.3389,6
0.9359,0.0983,0.3389,6
0.954,0.1192,0.461,6
1.0113,0.2256,0.3862,6
1.0257,0.2193,0.3225,6
0.9275,0.2971,0.1992,6
0.8661,0.2971,0.079,6
0.7276,0.1939,-0.0127,6
0.6305,0.1476,0.1713,6
0.6186,0.0107,0.2793,6
0.7079,-0.0612,0.3555,6
0.7079,-0.0612,0.3555,6
0.8336,-0.0123,0.2929,6
0.8846,0.1362,0.1839,6
0.851,0.2421,0.0393,6
0.8396,0.1661,0.0363,6
0.8258,0.0942,0.1355,6
0.7522,-0.0662,0.2768,6
0.6356,0.0816,0.1437,6
0.4723,0.151,-0.0286,6
0.2192,0.1281,0.0771,6
0.1334,0.1639,0.0974,6
0.1196,0.2511,0.1036,6
0.1939,0.2182,0.0168,6
0.3214,0.1831,0.0634,6
0.4565,0.1522,0.4055,6
0.4565,0.1522,0.4055,6
0.5344,0.0582,0.4829,6
0.8461,-0.0878,0.7166,6
1.1518,-0.098,0.8799,6
1.7067,0.2428,0.6161,6
1.6145,0.2761,0.4604,6
1.3559,0.0913,0.1618,6
1.162,-0.0288,0.0271,6
0.8959,-0.0887,-0.111,6
0.6832,-0.0437,-0.1537,6
0.597,-0.0688,-0.1426,6
0.4635,-0.0771,-0.0819,6
0.3367,0.0446,-0.1538,6
0.1245,0.1772,-0.3682,6
0.1711,0.0726,-0.4713,6
0.19,0.0618,-0.5085,6
0.2829,0.031,-0.4637,6
0.3936,-0.0364,-0.2892,6
0.3571,-0.059,-0.1566,6
0.4447,-0.2331,0.0315,6
0.5323,-0.3103,0.2673,6
0.6316,-0.1045,0.5559,6
0.8917,0.1492,0.4882,6
0.9606,0.1603,0.2573,6
0.6599,-0.0111,0.3331,6
0.671,-0.0456,0.382,6
0.7425,-0.1384,0.4821,6
0.9161,0.0058,0.437,6
1.0324,0.0571,0.1397,6
0.718,0.1349,-0.1751,6
0.6431,0.1223,-0.1843,6
0.6659,0.1841,-0.1555,6
0.74,0.2484,0.0485,6
0.9795,0.3019,0.0965,6
0.8611,0.239,0.1217,6
0.8611,0.239,0.1217,6
0.935,0.1307,0.1282,6
1.4509,0.1297,0.2241,6
1.5018,0.1698,0.2755,6
1.0113,0.0442,0.3586,6
0.8786,-0.0345,0.4278,6
0.5747,-0.1872,0.1623,6
0.2393,-0.1181,-0.1473,6
0.3467,-0.1244,-0.0521,6
0.758,0.1083,0.2052,6
0.758,0.1083,0.2052,6
1.031,0.2562,0.6,6
1.1111,0.0599,0.8124,6
0.8977,-0.0957,0.6842,6
0.8977,-0.0957,0.6842,6
0.8076,-0.0656,0.48,6
0.6926,0.117,0.0547,6
0.5213,0.1671,-0.216,6
0.6882,0.1476,-0.1985,6
1.0944,-0.1002,0.2904,6
1.0239,-0.1404,0.4455,6
0.903,-0.0544,0.3268,6
0.6518,0.0837,0.0533,6
0.4101,0.1221,-0.095,6
0.3775,0.3256,-0.286,6
0.3775,0.3256,-0.286,6
0.5121,0.3107,-0.2126,6
0.8129,0.23,-0.0676,6
0.9121,-0.0667,0.1021,6
0.8729,-0.2161,0.385,6
0.7921,-0.238,0.475,6
0.7208,-0.0461,0.3853,6
0.7203,0.1438,0.1441,6
0.8389,0.137,-0.0896,6
0.8389,0.137,-0.0896,6
0.7295,0.0602,-0.1188,6
0.619,0.0797,-0.0426,6
0.6893,-0.0768,0.4703,6
0.6893,-0.0768,0.4703,6
0.6893,-0.0768,0.4703,6
0.7873,0.0778,0.4317,6
0.6796,0.1582,0.125,6
0.6591,0.2597,-0.061,6
0.7937,0.1355,-0.0623,6
0.8183,-0.0224,0.0331,6
0.7153,-0.0753,0.1193,6
0.6725,-0.0215,0.1398,6
0.7501,0.0066,0.1603,6
0.7742,0.0599,0.1412,6
0.7742,0.0599,0.1412,6
0.7832,0.102,0.0861,6
0.717,0.1652,0.0748,6
0.5705,0.1459,0.0912,6
0.6519,0.1139,0.1574,6
0.6854,0.096,0.2353,6
0.6598,-0.0276,0.2428,6
0.7615,-0.0458,0.3318,6
0.8432,-0.0851,0.3271,6
0.8002,0.0444,0.3107,6
0.8002,0.0444,0.3107,6
0.8189,-0.0167,0.1948,6
0.8382,-0.0478,0.2717,6
0.8366,0.0002,0.2546,6
0.7488,0.0076,0.1907,6
0.7195,0.0441,0.1094,6
0.6978,0.063,0.0464,6
0.7216,0.1285,0.0647,6
0.7925,0.0554,0.258,6
0.8155,-0.0441,0.2342,6
0.7756,-0.0102,0.1736,6
0.7855,0.0492,0.1257,6
0.7721,0.1039,0.0656,6
0.7464,0.0725,-0.0366,6
0.7181,-0.1366,0.225,6
0.7181,-0.1366,0.225,6
0.6872,-0.0723,0.3159,6
0.7566,0.0318,0.2441,6
0.7162,0.2183,0.0365,6
0.6391,0.2215,-0.1608,6
0.5943,0.1482,-0.1709,6
0.7142,0.0559,0.0114,6
0.7249,0.0005,0.2129,6
0.6523,-0.0834,0.4301,6
0.8352,-0.0176,0.4154,6
0.8352,-0.0176,0.4154,6
0.8939,0.0967,0.2158,6
0.7857,0.1067,0.0101,6
0.6453,0.0815,-0.0739,6
0.6172,0.0332,-0.01,6
0.7606,0.0229,0.1615,6
0.8097,-0.0558,0.2189,6
0.7829,0.0138,0.1919,6
0.7431,-0.0087,0.196,6
0.8161,-0.0122,0.1491,6
0.8161,-0.0122,0.1491,6
0.6334,-0.0145,0.2079,6
0.6637,0.1171,0.1745,6
0.757,0.0017,0.283,6
0.757,0.0017,0.283,6
0.8152,-0.0023,0.2334,6
0.8346,-0.0202,0.1466,6
0.6454,-0.0091,0.1918,6
0.7885,0.1387,0.0476,6
0.7228,-0.0061,0.097,6
0.5989,-0.0523,0.2033,6
0.7577,0.0376,0.1851,6
0.9127,0.1307,0.0383,6
0.7272,-0.023,0.0629,6
0.7141,0.086,0.0946,6
0.7141,0.086,0.0946,6
0.7487,-0.0095,0.1618,6
0.6168,-0.0739,0.4311,6
0.8043,0.0117,0.3977,6
0.7858,0.1065,0.0413,6
0.6747,0.1003,-0.0689,6
0.6862,0.0771,0.021,6
0.7322,-0.0445,0.3389,6
0.7072,-0.0592,0.3961,6
0.7932,0.0589,0.1144,6
0.7932,0.0589,0.1144,6
0.7647,0.1159,-0.1048,6
0.7317,0.0414,-0.1378,6
0.7948,-0.0303,0.4308,6
0.8051,-0.0319,0.4228,6
0.8094,-0.0067,0.3644,6
0.6492,0.0519,0.0582,6
0.6744,0.1095,-0.0187,6
0.7765,0.0615,0.0212,6
0.7511,-0.0503,0.1788,6
