accx,accy,accz,label
-0.2615,0.3396,-0.5909,1
-0.1035,0.1714,-0.8833,1
0.301,-0.1418,-0.8523,1
1.0504,-0.895,-0.5706,1
1.4528,-2.18,-0.4332,1
1.3684,-2.3801,-0.383,1
1.2358,-2.9315,-0.128,1
0.7039,-3.2266,0.1708,1
0.0331,-1.9836,1.2049,1
0.0825,-0.5216,1.5519,1
0.1375,-0.4488,1.4212,1
-0.1226,-0.3718,0.9009,1
-0.6877,-0.2841,0.2947,1
-1.1,-0.2462,-0.2241,1
-0.4186,-0.4445,-0.5937,1
-0.0595,-0.6204,-0.4576,1
-0.0204,-0.6199,0.0862,1
-0.1168,-0.6045,0.5385,1
-0.4832,0.0358,0.7675,1
-0.5668,0.9042,0.011,1
-0.5668,0.9042,0.011,1
-0.4703,1.2056,-0.3707,1
-0.0522,1.3979,-0.708,1
0.3295,0.9794,-0.5829,1
0.3969,0.3984,-0.2904,1
0.2875,0.3787,-0.1628,1
0.5123,-0.0227,-0.2544,1
1.3306,-0.3453,-0.4056,1
1.7979,-0.3596,-0.3149,1
2.4132,-0.4968,-0.3079,1
2.6412,-1.1103,-0.4992,1
1.9447,-2.1281,-0.6983,1
1.3502,-2.7445,-0.4473,1
0.7423,-2.9783,0.0324,1
0.268,-1.2608,1.1426,1
0.3506,-0.7791,1.3398,1
0.6945,0.2772,1.5901,1
1.1751,0.7955,1.0932,1
0.73,0.6312,0.2921,1
0.2061,-0.3525,-1.054,1
-0.1194,-0.4159,-1.1944,1
-0.5223,-0.3699,-1.0885,1
-0.8399,-0.4688,-1.0158,1
-0.9919,-0.8116,-1.0311,1
-0.987,-0.6238,-0.8026,1
-0.987,-0.6238,-0.8026,1
-1.0657,-0.0751,-0.749,1
-1.1628,0.3507,-0.5201,1
-0.9058,0.3445,-0.3806,1
-0.6729,0.4105,-0.4554,1
-0.4728,0.4374,-0.5086,1
-0.1358,0.5301,-0.31,1
0.2366,0.4956,-0.2898,1
0.4429,0.3547,-0.5113,1
0.6471,-0.1881,-0.8183,1
0.8183,-0.6933,-0.7931,1
0.9883,-1.1479,-0.6415,1
1.3767,-2.7286,-0.6128,1
1.3605,-2.8405,-0.3019,1
0.8989,-3.3891,0.2166,1
0.8989,-3.3891,0.2166,1
0.0599,-2.8414,0.6929,1
-0.3394,-0.9861,1.5186,1
-0.1541,0.039,1.3925,1
-0.9646,0.1204,0.707,1
-1.3731,0.216,0.4234,1
-1.5252,0.134,-0.1663,1
-0.7867,-0.394,-0.568,1
-0.1472,-0.3911,-0.4741,1
0.3456,-0.2678,0.3198,1
0.3456,-0.2678,0.3198,1
0.2417,-0.2375,0.7435,1
-0.1451,0.2449,1.222,1
-0.2415,0.7176,0.9533,1
0.1394,1.0445,0.1989,1
0.3836,0.9924,-0.2934,1
0.489,0.9474,-0.2716,1
0.6879,0.6558,0.041,1
1.1038,0.1742,0.0124,1
1.6353,-0.1123,-0.6824,1
1.9184,0.0743,-0.8448,1
2.3502,0.1037,-0.6283,1
2.6039,-0.6095,-0.6511,1
2.1921,-2.4242,-0.6609,1
2.1921,-2.4242,-0.6609,1
1.6919,-3.1028,-0.4707,1
1.281,-3.5187,-0.3161,1
0.3395,-2.5409,0.4283,1
0.3359,-0.3874,1.4722,1
0.7369,-0.0723,1.1883,1
0.5834,-0.0184,0.0468,1
-0.0242,-0.0808,-0.8629,1
-0.4506,-0.4132,-1.5757,1
-0.752,-0.3926,-1.4518,1
-0.752,-0.3926,-1.4518,1
-0.852,-0.3287,-1.167,1
-1.2779,-0.4875,-0.7854,1
-1.638,-0.5672,-0.504,1
-1.585,-0.2973,-0.2819,1
-1.3228,-0.0374,-0.3691,1
-0.7083,0.2495,-0.3647,1
-0.4533,0.263,-0.1088,1
-0.5836,0.1038,0.0751,1
-0.5902,0.4214,-0.1395,1
-0.464,0.5347,-0.4659,1
-0.0912,0.1925,-0.7082,1
0.6431,-0.1455,-0.5998,1
1.2441,-0.5525,-0.3782,1
1.7884,-1.6788,-0.5518,1
1.7884,-1.6788,-0.5518,1
1.8277,-2.3044,-0.5228,1
1.4455,-2.5218,-0.1088,1
1.4693,-2.3885,0.4271,1
0.7416,-1.7406,0.8602,1
0.3776,-0.7427,1.2778,1
0.4817,0.0704,1.3415,1
0.0987,-0.0018,0.7748,1
-0.7016,-0.2128,0.1664,1
-1.1055,-0.3348,0.0225,1
-1.0858,-0.4228,-0.0286,1
-0.9067,-0.6917,-0.1713,1
-0.6062,-0.6093,-0.013,1
-0.265,-0.2835,0.4877,1
-0.4958,0.1909,0.8503,1
-0.672,0.5784,0.9502,1
-0.7636,0.9102,0.9122,1
-0.4093,0.9862,0.5444,1
-0.2183,0.956,-0.0149,1
0.0493,0.5209,-0.1204,1
0.2913,0.3727,0.0885,1
0.8514,0.1218,0.0459,1
1.4509,0.2026,-0.2211,1
1.9442,0.2641,-0.3357,1
2.3438,0.1357,-0.2815,1
2.5047,0.0329,-0.2747,1
2.6082,-0.3029,-0.2875,1
2.3423,-1.7261,-0.622,1
1.8988,-2.834,-0.7325,1
1.1896,-3.2465,-0.148,1
0.8172,-2.046,0.6639,1
0.8606,-0.2145,1.4684,1
1.152,0.2527,1.0587,1
0.9378,0.2035,0.4471,1
0.6839,0.0818,-0.5888,1
0.6839,0.0818,-0.5888,1
0.2671,-0.0529,-0.9056,1
-0.3327,-0.3437,-0.9703,1
-0.8818,-0.4942,-0.824,1
-1.6212,-0.5712,-0.701,1
-1.7302,-0.5247,-0.5201,1
-1.6093,0.0001,-0.4102,1
-1.072,0.4574,-0.5599,1
-0.5816,0.5526,-0.6112,1
-0.3375,0.2034,-0.3037,1
-0.3375,0.2034,-0.3037,1
-0.2766,0.0395,-0.0559,1
-0.0996,0.257,0.2657,1
0.5704,0.5743,-0.7809,1
0.5704,0.5743,-0.7809,1
0.7359,0.4873,-0.9761,1
1.3185,0.1829,-0.8539,1
2.0523,-0.8099,-0.8294,1
2.4305,-1.9365,-0.7723,1
2.1683,-2.6595,-0.2766,1
1.9306,-2.8178,0.1079,1
1.2507,-2.688,0.864,1
0.7305,-0.8262,2.1256,1
0.8444,-0.3781,1.9281,1
-0.373,-0.4849,0.7296,1
-0.373,-0.4849,0.7296,1
-0.9538,-0.2939,0.3809,1
-1.2639,-0.2148,0.1126,1
-0.9626,-0.5593,-0.1535,1
-0.5933,-0.2191,0.1424,1
-0.5755,0.0117,0.3321,1
-0.71,0.2401,0.7968,1
-0.8901,0.406,0.9365,1
-0.9857,0.9491,0.787,1
-0.4757,1.0958,0.1217,1
-0.4757,1.0958,0.1217,1
-0.3676,0.854,-0.0749,1
-0.2204,0.3502,-0.0347,1
0.916,-0.5976,-0.1956,1
0.916,-0.5976,-0.1956,1
1.2235,-0.5399,-0.4121,1
1.8727,-0.3208,-0.7436,1
2.1248,-0.4257,-0.8525,1
2.1343,-1.8358,-1.1738,1
1.7817,-2.3771,-1.191,1
1.6423,-3.1015,-0.9628,1
1.2982,-3.3123,-0.6944,1
0.0862,-1.933,0.4686,1
0.433,-0.3403,1.4789,1
0.4971,-0.2635,1.4763,1
0.5039,-0.0951,1.3082,1
0.2857,0.0717,0.6639,1
-0.116,0.0962,-0.0929,1
-0.283,-0.2684,-0.7013,1
-0.4795,-0.2844,-0.7279,1
-1.028,-0.2042,-0.6743,1
-1.3684,0.0693,-0.7188,1
-1.4876,0.3747,-0.6298,1
-0.9797,0.8895,-0.3477,1
-0.9797,0.8895,-0.3477,1
-0.362,1.1076,-0.2978,1
-0.1847,1.0786,-0.2665,1
0.0863,0.2389,-0.3499,1
0.0223,0.2661,-0.3134,1
-0.0327,0.3603,-0.1855,1
0.2374,0.2995,-0.0877,1
0.709,0.0937,-0.1443,1
1.3782,-0.0018,-0.2282,1
1.8497,-0.7803,-0.5495,1
1.8745,-1.5156,-0.6508,1
1.5822,-2.9592,-0.3141,1
1.1814,-3.2802,0.4952,1
1.1142,-3.3708,0.9861,1
0.403,-1.1186,1.4316,1
0.403,-1.1186,1.4316,1
0.4865,-0.0796,1.229,1
0.1978,0.2276,0.4944,1
-0.7185,0.2377,-0.1053,1
-1.1879,0.2128,-0.4689,1
-0.922,-0.2161,-0.7559,1
-0.6576,-0.6604,-0.8614,1
-0.5259,-0.3423,-0.2793,1
-0.4,0.1897,0.5929,1
-0.3773,0.447,0.9881,1
-0.4073,0.5088,0.9796,1
-0.4441,0.6679,0.7843,1
-0.4818,1.0988,0.4259,1
0.1632,0.5456,0.0695,1
0.1632,0.5456,0.0695,1
0.3042,0.2487,0.2512,1
0.6632,-0.3226,0.3679,1
1.2005,-0.5252,0.1831,1
1.8835,-0.4712,-0.3169,1
2.5922,-0.1103,-0.3582,1
2.9132,-0.474,-0.5902,1
2.4684,-1.8597,-1.1715,1
1.7981,-2.8557,-0.8021,1
1.2204,-3.3194,-0.1004,1
0.0326,-1.3247,1.1353,1
0.0326,-1.3247,1.1353,1
0.3743,-0.7829,1.34,1
0.423,-0.0108,0.6706,1
0.2294,0.1454,-0.1863,1
-0.049,-0.2311,-1.2179,1
-0.2607,-0.3973,-1.2227,1
-0.4073,-0.2211,-1.0421,1
-0.7879,-0.0207,-1.0227,1
-1.5042,0.0581,-0.9704,1
-1.5669,-0.1372,-0.9205,1
-1.4931,-0.1321,-0.8474,1
-1.2927,-0.0375,-0.7271,1
-0.7358,0.4529,-0.2631,1
-0.5869,0.261,0.1271,1
-0.5869,0.261,0.1271,1
-0.5517,0.358,-0.0414,1
-0.4771,0.4825,-0.3054,1
-0.0066,0.1802,-0.3946,1
0.6446,-0.3324,-0.0005,1
1.3184,-0.2675,0.2905,1
1.6706,-0.7308,-0.2228,1
1.996,-1.8608,-0.9256,1
1.8175,-2.8542,-0.8604,1
1.3217,-3.2208,-0.0776,1
0.7279,-3.0651,0.6112,1
0.7279,-3.0651,0.6112,1
0.3819,-2.0402,0.9902,1
0.4455,-0.6363,0.9682,1
0.0104,-0.0655,0.5192,1
-0.6605,0.1625,-0.2534,1
-0.8989,0.103,-0.3926,1
-0.9803,-0.1899,-0.5279,1
-0.6626,-0.5614,-0.5489,1
-0.5944,-0.483,-0.2005,1
-0.7776,-0.2025,0.6001,1
-0.7776,-0.2025,0.6001,1
-1.0055,-0.0471,0.8422,1
-1.046,0.4795,0.5325,1
-0.719,0.938,0.1593,1
-0.1162,1.2119,-0.2626,1
0.1263,1.0914,-0.4141,1
0.3196,0.6937,-0.1351,1
0.5466,0.3256,0.4217,1
1.3328,-0.2156,0.3719,1
1.7002,-0.2514,0.131,1
2.3914,-0.0959,-0.3329,1
3.0493,-0.2248,-0.6537,1
3.1383,-1.353,-0.8824,1
2.4602,-2.6567,-0.461,1
2.2705,-2.8399,-0.29,1
1.6334,-3.3138,0.1061,1
0.6368,-3.2044,0.6358,1
-0.4656,-1.7026,1.2156,1
0.1511,-0.0485,0.9516,1
0.129,0.1365,0.4214,1
0.113,0.0612,-0.4929,1
0.1285,-0.472,-1.4204,1
-0.2458,-0.5278,-1.5313,1
-0.7475,-0.3198,-1.084,1
-0.7475,-0.3198,-1.084,1
-1.051,-0.2938,-0.9183,1
-1.4469,-0.2421,-0.8114,1
-0.9042,0.619,-0.7058,1
-0.9042,0.619,-0.7058,1
-0.5884,0.6984,-0.5032,1
-0.2876,0.6156,-0.2541,1
-0.2066,0.4922,0.0433,1
-0.1975,0.5884,0.2332,1
0.0075,0.6381,0.4555,1
0.2463,0.4725,0.3254,1
0.6737,0.2593,0.0382,1
0.9781,0.1633,-0.0862,1
1.7247,-0.2133,-0.2689,1
2.0219,-1.5449,-0.6179,1
2.0219,-1.5449,-0.6179,1
1.8472,-2.0365,-0.5427,1
1.7791,-2.192,-0.2401,1
1.5738,-2.5211,-0.2459,1
1.0127,-2.1311,0.2061,1
0.9469,-0.7637,0.8962,1
1.0617,0.1309,0.9357,1
0.3853,0.1938,0.4288,1
-0.1599,0.1275,-0.1646,1
-0.4579,-0.2305,-0.4019,1
-0.4579,-0.2305,-0.4019,1
-0.2053,-0.7387,-0.4425,1
-0.3661,-0.7946,-0.3508,1
-0.4854,-0.7029,-0.0387,1
-0.8516,-0.3915,0.4047,1
-0.9749,0.0316,0.5568,1
-0.9126,0.7253,0.3747,1
-0.5127,0.8554,0.1412,1
-0.3971,0.7672,-0.1422,1
-0.2893,0.5112,0.0184,1
-0.0623,0.3169,0.3822,1
0.2863,0.0539,0.5407,1
0.6217,-0.1705,-0.015,1
1.1723,-0.2347,-0.3654,1
1.9003,-0.0644,0.0751,1
1.9003,-0.0644,0.0751,1
2.2629,-0.5528,-0.0672,1
2.143,-1.6349,-0.5575,1
1.7345,-2.6542,-0.7296,1
1.5222,-3.1642,-0.22,1
1.0218,-2.7764,0.4093,1
0.2283,-1.1562,1.7471,1
0.6387,-0.2806,1.6226,1
0.7147,0.1481,0.2222,1
0.5035,0.0451,-1.067,1
0.4208,-0.0844,-1.2246,1
0.4208,-0.0844,-1.2246,1
-0.7238,-0.8665,-1.1042,1
-1.0229,-1.2007,-0.7466,1
-1.5501,-0.7558,-0.8768,1
-1.4964,-0.5374,-1.0462,1
-1.1485,0.2528,-1.0975,1
-0.7667,0.665,-1.0149,1
-0.1338,0.8222,-0.8515,1
-0.081,0.5392,-0.6271,1
-0.0297,0.3154,-0.4325,1
0.0755,0.4115,-0.0872,1
0.2155,0.6268,-0.0497,1
0.3701,0.5466,-0.1863,1
0.8662,0.2021,-0.2778,1
0.9058,0.1897,-0.2882,1
1.0722,0.1861,-0.3695,1
1.4783,-0.1486,-0.6369,1
1.6146,-1.182,-0.5751,1
1.4646,-2.4467,0.2387,1
1.3794,-2.596,0.5218,1
1.355,-2.6843,0.4822,1
1.1766,-2.6432,0.4495,1
0.6952,-0.9109,1.2981,1
0.7599,0.3289,1.1674,1
0.7599,0.3289,1.1674,1
0.1648,0.129,0.4327,1
-0.611,0.0621,-0.2607,1
-0.93,0.0072,-0.3253,1
-0.4592,-0.8766,-0.5233,1
-0.3047,-1.265,-0.5854,1
-0.3391,-1.2788,-0.25,1
-0.33,-1.1512,0.4961,1
-0.6278,-0.6801,0.9763,1
-0.7934,0.3652,0.9395,1
-0.5981,0.5077,0.6565,1
-0.2206,0.7404,-0.1976,1
-0.1237,0.8519,-0.5651,1
-0.0676,0.4563,-0.3851,1
0.2095,0.2642,0.2232,1
0.2095,0.2642,0.2232,1
0.3635,0.2573,0.1533,1
0.7231,0.4578,-0.4176,1
1.4934,0.3107,-0.484,1
1.7634,0.3206,-0.4004,1
2.3591,-0.2111,-0.5344,1
2.0334,-1.2146,-0.6601,1
1.1873,-2.2058,-0.2475,1
0.8344,-2.6191,0.2727,1
0.8269,-2.681,0.3124,1
0.7051,-2.6457,0.5212,1
0.4267,-1.8826,1.1226,1
0.6694,-0.937,1.4273,1
0.7847,-0.2228,0.6268,1
0.3806,-0.3588,-0.0116,1
-0.1099,-0.7589,-0.7071,1
-0.5534,-1.268,-0.8567,1
-0.6723,-1.4722,-0.8717,1
-0.466,-1.4563,-1.0305,1
-0.5013,-1.291,-1.0067,1
-0.5658,-0.5665,-0.779,1
-0.5451,-0.1116,-0.7133,1
-0.4522,0.0981,-0.5943,1
-0.3981,0.1114,-0.4378,1
-0.42,0.0659,-0.4007,1
-0.453,0.0145,-0.2662,1
-0.5919,-0.1458,-0.018,1
-0.3821,0.0165,0.2583,1
-0.1753,0.5506,0.1061,1
-0.0565,0.6653,-0.1361,1
0.1235,0.5791,-0.2781,1
0.3623,0.5817,-0.35,1
0.6616,0.516,-0.469,1
1.2381,0.0944,-0.5819,1
1.3116,-0.0116,-0.6184,1
1.522,-0.3819,-0.6585,1
1.3584,-0.8403,-0.4788,1
1.0847,-0.9,0.0446,1
1.2074,-1.3667,0.3029,1
0.9342,-1.8138,0.2822,1
0.606,-1.8216,0.5171,1
0.9343,-1.084,1.2294,1
0.7047,-0.3157,1.5025,1
0.1074,0.3597,1.1255,1
-0.2601,0.2694,0.4952,1
-0.9217,-0.0409,-0.2703,1
-1.4184,-0.2081,-0.7997,1
-1.0378,-0.5485,-1.0851,1
-0.3715,-1.0482,-0.7092,1
-0.368,-1.1347,-0.5706,1
-0.3214,-1.2321,-0.3403,1
-0.4449,-1.1847,0.7745,1
-0.2249,-0.8406,1.8421,1
0.0128,-0.4402,2.3228,1
-0.175,-0.7038,1.5958,1
-0.1129,-0.772,0.7469,1
-0.1303,-0.8716,-0.2387,1
-0.49,-0.6308,-0.9872,1
-0.4114,-0.44,-1.3053,1
-0.4114,-0.44,-1.3053,1
-0.4114,-0.44,-1.3053,1
-0.0579,-0.2491,0.4404,1
-0.118,-0.4544,0.8691,1
-0.5151,-0.2009,0.0661,1
-0.4234,-0.0208,-0.5886,1
0.1428,0.0895,-1.119,1
0.5342,-0.1566,-1.3393,1
1.0954,-0.4084,-1.517,1
1.8822,-0.5507,-0.8105,1
1.9544,-0.5424,-0.1958,1
1.6608,-0.4801,0.376,1
1.0225,-0.1158,0.7313,1
1.0225,-0.1158,0.7313,1
0.7097,0.2455,0.6255,1
0.582,0.3167,0.2487,1
0.7847,0.362,0.106,1
0.9835,0.1633,0.1382,1
1.1535,-0.1132,-0.0089,1
1.4545,-0.1179,0.0632,1
1.6942,0.0934,0.0284,1
1.7894,0.2315,0.1426,1
1.7604,-0.1377,0.219,1
1.6162,-0.3941,0.0587,1
1.3353,-0.7489,-0.1387,1
1.3589,-0.8479,-0.1915,1
1.2928,-1.0007,-0.2667,1
1.2858,-1.0034,-0.1466,1
1.3353,-0.3548,0.5278,1
1.039,0.7418,0.7731,1
0.7681,1.2,0.4891,1
0.5968,1.1209,-0.3823,1
0.4682,0.6179,-0.6633,1
0.2927,-0.2667,-0.755,1
0.2598,-1.1668,-0.5428,1
0.2951,-1.3065,-0.4865,1
0.2545,-1.5166,-0.1874,1
0.3122,-1.79,0.3424,1
0.1943,-1.5856,0.5158,1
0.2497,-0.7387,0.1142,1
0.0956,-0.3198,-0.2768,1
0.0104,-0.0998,-0.6813,1
0.0723,-0.1772,-0.5583,1
0.0135,-0.2353,-0.2223,1
-0.1902,-0.179,0.0482,1
-0.1902,-0.179,0.0482,1
-0.4308,-0.1744,0.1158,1
-0.5984,-0.1322,0.06,1
-0.3034,-0.1572,0.0933,1
