accx,accy,accz,label
0.5135,1.9124,-0.7142,3
0.5135,1.9124,-0.7142,3
0.3291,2.5602,-0.8705,3
0.1384,2.6015,-0.9282,3
0.094,2.361,-1.0764,3
0.1599,2.298,-0.9789,3
0.2395,2.148,-0.9259,3
0.3589,1.8103,-0.7624,3
0.3525,1.43,-0.6663,3
0.2788,0.7971,-0.3708,3
0.0501,0.1451,0.0459,3
0.0501,0.1451,0.0459,3
-0.0311,0.3169,0.1204,3
-0.2293,0.2963,-0.0883,3
-0.605,-0.4265,-0.0561,3
-0.7766,-2.1531,0.2229,3
-0.8167,-2.5391,0.1704,3
-0.5713,-2.1404,-0.2165,3
-0.405,-0.9742,-0.5584,3
-0.4018,-0.3435,-0.325,3
-0.3606,-1.004,0.1094,3
-0.1264,-2.2808,0.0987,3
-0.0669,-2.5993,0.1113,3
0.1621,-2.0934,-0.2642,3
0.914,-0.557,-0.5926,3
0.6998,1.7349,-0.9159,3
0.6998,1.7349,-0.9159,3
0.7509,2.6315,-0.732,3
0.4497,3.0945,-0.5975,3
0.2283,2.7597,-0.213,3
-0.0938,2.0013,-0.0344,3
-0.0949,1.6443,0.0925,3
-0.0748,1.2368,0.1318,3
-0.1158,0.8915,0.1623,3
-0.025,0.5961,0.3593,3
-0.0525,0.5502,0.4732,3
-0.0522,0.4762,0.4745,3
-0.0805,0.061,0.47,3
-0.2673,-0.8615,0.6169,3
-0.3259,-1.7738,0.9025,3
-0.3424,-2.3843,1.0821,3
-0.2997,-2.0372,0.9155,3
-0.4669,-1.9352,0.9256,3
-0.3725,-1.9854,0.8346,3
-0.2781,-2.6111,0.8346,3
-0.153,-3.1406,0.8309,3
-0.153,-3.1406,0.8309,3
0.2203,-0.5773,0.2668,3
0.1087,1.0346,-0.2807,3
0.0745,1.9866,-0.5885,3
-0.0454,2.822,-0.8001,3
-0.0454,2.822,-0.8001,3
-0.0801,3.1958,-0.7905,3
-0.2344,3.1288,-0.8327,3
-0.2742,2.6664,-0.8836,3
-0.1899,2.0847,-0.4643,3
-0.1686,1.703,-0.4173,3
-0.0816,1.277,-0.4288,3
0.0642,0.7468,-0.3036,3
0.0097,0.7122,-0.2513,3
0.0966,0.5578,-0.2396,3
0.0966,0.5578,-0.2396,3
0.0287,0.371,-0.3653,3
-0.1398,0.2091,-0.4075,3
-0.4454,-0.4384,-0.5301,3
-0.7501,-1.8018,-0.2586,3
-0.6997,-2.2666,-0.1735,3
-0.6317,-2.2371,-0.2833,3
-0.5301,-1.6166,-0.3592,3
-0.4847,-1.2332,-0.4171,3
-0.5094,-2.2856,0.0928,3
-0.5108,-2.5002,0.0672,3
-0.1976,-3.4982,0.5459,3
0.4196,-2.3704,0.4533,3
0.5241,-1.1862,-0.1014,3
0.6195,-0.7262,-0.2584,3
0.4634,0.8304,-0.6073,3
0.4617,1.9606,-0.7262,3
0.3645,2.9247,-0.7684,3
0.12,3.3067,-0.8679,3
-0.0349,2.9283,-0.8401,3
-0.0953,2.5685,-0.7655,3
-0.1265,2.1201,-0.5896,3
-0.0911,1.6272,-0.4142,3
-0.0234,1.0505,-0.1362,3
0.063,0.8405,0.0758,3
0.063,0.8405,0.0758,3
0.1408,0.8953,0.1122,3
0.1698,0.8145,0.2234,3
0.1176,0.6402,0.4108,3
-0.2227,0.3203,0.5294,3
-0.3124,0.0114,0.4775,3
-0.4225,-1.1074,0.359,3
-0.3867,-2.1077,0.3277,3
-0.2277,-3.076,0.5026,3
0.0217,-2.8839,0.3989,3
-0.0076,-2.7764,0.3525,3
0.094,-2.6265,0.3319,3
0.1136,-2.5096,0.4699,3
0.0895,-2.2965,0.4159,3
0.2739,-2.3329,0.4291,3
0.349,-1.5104,0.2557,3
0.3128,0.0194,-0.1884,3
0.1391,1.6292,-0.5542,3
-0.0622,2.3324,-0.7435,3
-0.2839,2.8606,-1.0144,3
-0.3856,2.8993,-1.075,3
-0.4133,2.6456,-1.0503,3
-0.4388,1.8731,-0.9383,3
-0.2131,1.6487,-0.9498,3
-0.0944,1.6076,-0.7038,3
-0.0944,1.6076,-0.7038,3
-0.072,1.5773,-0.4804,3
-0.14,1.2841,-0.1271,3
-0.2713,0.8271,0.1181,3
-0.4788,0.3512,0.2287,3
-0.4834,0.1992,0.2007,3
-0.8637,-0.3326,-0.098,3
-1.3158,-2.6357,0.2924,3
-1.2037,-3.9789,0.23,3
-1.0722,-4.0031,-0.3255,3
-1.0722,-4.0031,-0.3255,3
-0.3691,-2.0114,-0.8185,3
-0.4426,-0.7893,-1.1226,3
-0.3836,-0.5818,-0.647,3
-0.441,-1.6214,-0.107,3
-0.3105,-2.9964,0.3601,3
0.0471,-2.5656,0.2769,3
0.2149,-1.3822,0.0012,3
0.2229,0.1211,-0.1248,3
0.2272,0.6504,-0.02,3
0.2069,1.1016,0.0614,3
0.1269,1.5448,-0.0591,3
0.0371,1.5012,-0.2066,3
0.0473,1.362,-0.4437,3
0.0601,1.3115,-0.4407,3
0.0445,1.2221,-0.4011,3
0.0651,0.7166,-0.1534,3
0.1593,0.4209,-0.0163,3
0.1967,0.0441,0.1158,3
0.2374,-0.0874,0.1631,3
0.3206,-0.2686,0.2757,3
0.2456,-0.5284,0.2705,3
0.1707,-0.8781,0.3971,3
-0.0548,-0.9868,0.4841,3
-0.0548,-0.9868,0.4841,3
-0.2637,-0.7591,0.5346,3
-0.4574,-0.6705,0.56,3
-0.7,-0.6432,0.4973,3
-0.822,-0.5393,0.4925,3
-0.9281,-0.7123,0.4293,3
-0.8439,-1.1074,0.4501,3
-0.5623,-0.5909,0.3745,3
-0.3335,0.4739,0.0787,3
-0.4438,1.7111,-0.064,3
-0.4438,1.7111,-0.064,3
-0.5924,1.9281,-0.0045,3
-0.6531,1.7546,-0.123,3
-0.6684,0.1278,0.1617,3
-0.6684,0.1278,0.1617,3
-0.5823,-0.4294,0.1864,3
-0.4253,-0.9651,0.2323,3
-0.25,-0.7891,0.3492,3
-0.1002,-0.4141,0.1927,3
-0.0796,0.1269,0.0202,3
-0.1211,0.5183,-0.0664,3
-0.2162,1.0503,-0.3181,3
-0.3018,1.1798,-0.5614,3
-0.4159,1.0312,-0.7516,3
-0.4746,0.7543,-0.8392,3
-0.5063,0.7713,-0.8304,3
-0.5063,0.7713,-0.8304,3
-0.5818,0.432,-0.8874,3
-0.6223,-0.1268,-0.6237,3
-0.6597,-0.9635,-0.4068,3
-0.6936,-1.5828,-0.2116,3
-0.8105,-1.7165,-0.0448,3
-0.8233,-1.2921,0.046,3
-0.9125,-0.9204,-0.0135,3
-1.0183,-1.2833,0.1569,3
-0.989,-1.3191,0.1818,3
-0.89,-2.3228,-0.0446,3
-0.4041,-2.1124,-0.1513,3
0.2713,-1.067,-0.3927,3
0.577,1.048,-0.8272,3
0.577,1.048,-0.8272,3
0.6049,1.7952,-0.7618,3
0.6705,2.4791,-0.6662,3
0.38,1.5087,-0.6015,3
0.2684,0.6246,-0.3311,3
0.3669,0.2181,-0.3118,3
0.5186,-0.1167,-0.0971,3
0.7793,-0.1848,0.103,3
1.1201,0.9354,0.3888,3
1.1201,0.9354,0.3888,3
1.1072,1.1595,0.519,3
1.0632,1.3385,0.5537,3
0.9982,1.3764,0.5401,3
1.0679,1.1385,0.4397,3
1.0151,1.0504,0.3053,3
1.0302,1.0821,0.2201,3
0.9683,0.9706,-0.0057,3
0.9683,0.9706,-0.0057,3
0.8998,0.8453,0.0094,3
0.783,0.6336,0.0907,3
0.6404,0.4192,0.1287,3
0.324,-0.1774,0.2848,3
0.0364,-1.5402,0.4998,3
-0.1082,-2.2673,0.7747,3
-0.1175,-2.4595,0.7286,3
-0.058,-2.6413,0.6252,3
0.3077,-2.3267,0.6268,3
0.6437,-1.0729,0.3238,3
0.6622,-0.6679,0.3168,3
0.5788,0.5963,-0.1597,3
0.5845,0.8559,-0.1529,3
0.5124,1.1314,-0.333,3
0.3914,0.7951,-0.319,3
0.2203,-0.4858,-0.1294,3
0.1989,-0.7104,-0.0914,3
0.4712,-0.5013,0.3181,3
0.3022,-0.0528,0.1581,3
0.526,1.1387,-0.0652,3
0.6204,1.3288,-0.1275,3
0.5837,1.3523,-0.1599,3
0.5954,1.4111,-0.3007,3
0.5274,1.2541,-0.3503,3
0.4429,1.152,-0.3533,3
0.3221,1.1777,-0.4266,3
0.314,1.2672,-0.4281,3
0.283,1.499,-0.4534,3
0.1577,1.5626,-0.5096,3
0.1723,1.7036,-0.5597,3
0.115,2.0134,-0.6316,3
0.1126,2.0246,-0.6479,3
0.0471,1.9763,-0.6706,3
-0.1153,1.7348,-0.6736,3
-0.225,1.1008,-0.5942,3
-0.3362,0.72,-0.4126,3
-0.386,0.6875,-0.4834,3
-0.415,0.3609,-0.5293,3
-0.474,0.2893,-0.3899,3
-0.5046,0.4885,-0.5152,3
-0.8034,0.1753,-0.4244,3
-0.9585,-0.5968,-0.2283,3
-1.0416,-1.4241,-0.168,3
-1.0319,-2.039,-0.1265,3
-0.9102,-2.169,-0.0958,3
-0.7964,-2.1598,0.1332,3
-0.7964,-2.1598,0.1332,3
-0.7637,-2.637,0.2387,3
-0.7088,-3.1432,0.4805,3
-0.6193,-2.7575,0.39,3
-0.4391,-1.602,0.1557,3
-0.3499,-1.0286,0.0101,3
-0.2919,0.4671,-0.2042,3
-0.2813,1.5042,-0.4118,3
-0.213,2.2895,-0.5081,3
-0.2484,2.5762,-0.47,3
-0.2484,2.5762,-0.47,3
-0.2603,2.4002,-0.2923,3
-0.2478,2.0644,0.0803,3
-0.0299,1.7981,0.169,3
-0.0299,1.7981,0.169,3
0.0603,1.9409,0.115,3
0.1407,2.3475,0.0545,3
0.1413,2.1711,0.2066,3
0.1989,1.7723,0.1493,3
0.1336,1.0733,0.2642,3
0.1006,0.4795,0.4803,3
0.0278,0.1625,0.5317,3
-0.1243,-0.1007,0.5285,3
-0.348,-1.3903,0.7747,3
-0.3432,-2.9804,1.0422,3
-0.2994,-3.187,1.056,3
-0.1708,-3.3724,1.0563,3
-0.0359,-3.3372,0.9251,3
-0.0113,-3.007,0.84,3
-0.0412,-2.3771,0.6912,3
-0.0189,-2.2861,0.5982,3
-0.1415,-2.4813,0.6596,3
-0.1079,-1.7318,0.5186,3
0.011,-0.534,-0.0749,3
0.0953,0.811,-0.4175,3
0.1723,1.3099,-0.5787,3
0.2196,2.0338,-0.6968,3
0.2196,2.0338,-0.6968,3
0.2203,2.4378,-0.6414,3
0.1935,2.6318,-0.5967,3
0.2044,2.6699,-0.6587,3
0.166,2.5194,-0.5573,3
0.0425,2.3068,-0.4996,3
-0.0637,1.9133,-0.37,3
-0.1485,1.9701,-0.2809,3
-0.2962,2.2312,-0.4155,3
-0.4708,2.1311,-0.4432,3
-0.6065,1.3713,-0.4009,3
-0.708,0.4627,-0.2601,3
-0.708,0.4627,-0.2601,3
-0.625,0.1623,-0.2376,3
-0.5901,-0.0552,-0.5676,3
-1.0028,-1.2442,-0.7418,3
-1.0625,-2.6399,-0.5659,3
-1.0949,-2.6714,-0.5289,3
-0.8696,-2.7709,-0.4796,3
-0.6981,-2.2329,-0.7362,3
-0.5578,-1.7565,-0.6368,3
-0.4137,-1.6609,-0.5258,3
-0.2747,-2.3082,-0.1934,3
-0.0599,-2.6547,0.1915,3
-0.0599,-2.6547,0.1915,3
0.3426,-1.7874,0.0318,3
0.5558,0.2942,-0.4291,3
0.3718,1.3857,-0.6595,3
0.3848,2.3043,-0.599,3
0.1179,2.5357,-0.4691,3
0.0713,2.7478,-0.2456,3
-0.0863,3.0836,-0.197,3
-0.0863,3.0836,-0.197,3
-0.2284,2.4676,0.0569,3
-0.1825,2.2622,0.1156,3
-0.0791,2.0349,0.3397,3
-0.0791,2.0349,0.3397,3
-0.0294,1.5147,0.3948,3
0.089,1.0049,0.4831,3
0.0853,0.441,0.402,3
-0.0286,-0.4431,0.501,3
-0.2773,-2.2096,0.6128,3
-0.2323,-2.7258,0.6427,3
-0.1531,-3.147,0.5918,3
0.1141,-3.0793,0.6999,3
0.1398,-3.0889,0.6952,3
0.1292,-3.9707,1.0232,3
0.1292,-3.9707,1.0232,3
0.1402,-3.9846,1.1215,3
0.4399,-3.2091,0.9796,3
0.6249,-1.1872,0.3706,3
0.5786,0.8572,-0.117,3
0.5308,1.705,-0.1718,3
0.251,2.2465,-0.5025,3
0.3777,2.2387,-0.2802,3
0.2906,2.3809,-0.327,3
0.3239,2.1517,-0.3246,3
0.3239,2.1517,-0.3246,3
0.3401,2.1518,-0.2065,3
0.3632,2.2669,-0.1458,3
0.2604,2.1369,0.0066,3
0.0846,2.0624,0.2002,3
-0.0482,1.9783,0.1759,3
-0.2037,1.9898,0.2415,3
-0.4905,1.5698,0.0859,3
-0.5942,0.6335,0.1533,3
-0.5432,0.0164,0.1028,3
-0.681,-0.4427,-0.0588,3
-0.9283,-1.8372,0.0599,3
-0.8966,-2.4871,-0.1406,3
-0.7357,-2.5689,-0.5021,3
-0.5225,-2.3795,-0.6872,3
-0.5225,-2.3795,-0.6872,3
-0.3629,-1.7889,-0.6025,3
-0.4513,-1.985,-0.5079,3
-0.3172,-2.7474,-0.3252,3
-0.0286,-3.2994,0.0368,3
0.2659,-2.9035,-0.0205,3
0.539,-1.3891,-0.3259,3
0.5831,-0.0754,-0.5174,3
0.5958,1.3111,-0.5915,3
0.5577,1.5953,-0.5816,3
0.5876,1.7756,-0.5496,3
0.3857,2.5568,-0.57,3
0.3595,2.7714,-0.5736,3
0.2814,2.7062,-0.4715,3
0.1749,2.3864,-0.2928,3
0.2589,2.2706,-0.2304,3
0.3859,2.1729,-0.0888,3
0.3784,2.0847,-0.1429,3
0.3559,1.8968,-0.1117,3
0.3678,1.2854,0.1246,3
0.3678,1.2854,0.1246,3
0.2787,0.8307,0.2884,3
0.1749,0.1413,0.4939,3
0.023,-0.4161,0.5881,3
-0.2454,-0.801,0.7868,3
-0.4621,-1.1716,0.8122,3
-0.5996,-2.0143,0.7926,3
-0.4508,-2.5656,0.7823,3
-0.3629,-2.4329,0.6567,3
-0.4822,-1.7071,0.4817,3
-0.5634,-1.5577,0.4483,3
-0.5476,-1.9799,0.5422,3
-0.3754,-2.4932,0.5135,3
-0.1503,-2.2288,0.5413,3
0.1893,-0.6918,0.1563,3
0.1893,-0.6918,0.1563,3
0.2276,-0.0119,-0.0641,3
0.1718,0.7643,-0.3045,3
0.1632,1.4573,-0.5388,3
0.0336,1.5993,-0.6403,3
0.0251,1.6339,-0.6069,3
0.0152,1.6758,-0.7455,3
0.0019,1.8828,-0.8319,3
-0.0896,2.1447,-0.7497,3
-0.2233,2.1099,-0.5216,3
-0.2233,2.1099,-0.5216,3
-0.2821,1.9723,-0.417,3
-0.3067,1.8219,-0.4009,3
-0.3752,1.6807,-0.2043,3
-0.4216,1.4316,-0.2246,3
-0.3424,0.7631,-0.1673,3
-0.3814,0.1104,-0.132,3
-0.3208,-0.116,-0.2728,3
-0.4849,-0.4162,-0.4002,3
-0.7352,-1.3589,-0.403,3
-0.7471,-2.259,-0.2206,3
-0.6211,-2.3307,-0.225,3
-0.4238,-1.9198,-0.5426,3
-0.4238,-1.9198,-0.5426,3
-0.3393,-1.4615,-0.7038,3
-0.4339,-1.7154,-0.5048,3
-0.4037,-2.5268,-0.3194,3
-0.1652,-3.1011,0.0681,3
-0.2535,-2.4351,0.1227,3
0.1633,-2.0941,0.024,3
0.3534,-0.2704,-0.5303,3
0.4487,0.3468,-0.485,3
0.4195,1.042,-0.4278,3
0.3927,1.7383,-0.4056,3
0.3405,1.795,-0.4981,3
0.3571,2.0076,-0.5574,3
0.2756,2.0994,-0.5452,3
0.1028,1.9203,-0.4074,3
-0.0487,1.8832,-0.3006,3
-0.0646,1.7584,-0.1575,3
-0.0353,1.7541,-0.0199,3
0.026,2.0012,-0.0437,3
0.0242,2.1163,-0.0965,3
-0.0677,1.7037,-0.0301,3
-0.0925,1.6247,0.0072,3
-0.2186,1.2733,0.1467,3
-0.216,0.8099,0.3866,3
0.004,0.5835,0.5931,3
0.004,0.5835,0.5931,3
0.0156,0.6357,0.5322,3
-0.1134,-0.0126,0.6615,3
-0.2952,-1.8111,1.0121,3
-0.1854,-2.7607,1.1091,3
0.0214,-2.6448,1.116,3
-0.0011,-2.1124,0.9895,3
-0.1456,-1.5338,0.6523,3
-0.3751,-1.5592,0.6121,3
-0.4101,-2.5337,0.4125,3
-0.3271,-2.8206,0.2143,3
-0.2823,-2.6794,0.1415,3
-0.1909,-2.101,0.0795,3
-0.0259,-0.6093,-0.3627,3
-0.0811,0.2801,-0.57,3
-0.1146,1.1917,-0.7541,3
-0.1889,1.5692,-0.7966,3
-0.1918,1.6244,-0.8054,3
-0.1667,1.659,-0.8314,3
-0.0263,2.0527,-0.8782,3
0.0089,2.7542,-1.0125,3
0.0089,2.7542,-1.0125,3
-0.0561,2.6644,-0.8079,3
-0.1798,1.9867,-0.5639,3
-0.2974,1.646,-0.3568,3
-0.3272,1.6209,-0.2975,3
-0.3373,1.6578,-0.3367,3
-0.4648,0.8764,-0.0358,3
-0.5201,0.0868,0.2039,3
-0.4441,-0.351,0.1736,3
-0.3927,0.0019,-0.0331,3
-0.4789,-0.1949,-0.3698,3
-0.7589,-1.2771,-0.4319,3
-0.8008,-2.1921,-0.4866,3
-0.7735,-2.4878,-0.3766,3
-0.509,-2.1934,-0.362,3
-0.509,-2.1934,-0.362,3
-0.4103,-1.7811,-0.395,3
-0.6105,-1.5746,-0.3541,3
-0.7208,-1.6117,-0.1931,3
-0.7523,-2.0067,0.177,3
-0.7303,-2.692,0.4161,3
-0.6297,-2.3006,0.5999,3
-0.475,-1.3406,0.373,3
-0.2975,-0.76,0.3271,3
-0.0451,-0.5235,0.1294,3
-0.0451,-0.5235,0.1294,3
-0.0844,-0.0948,-0.018,3
-0.0931,1.133,-0.1865,3
-0.1957,1.7999,-0.4168,3
-0.1235,2.1459,-0.5022,3
-0.0973,2.1967,-0.4981,3
0.1322,1.5756,-0.4012,3
0.2117,1.4086,-0.3243,3
0.1647,2.0908,-0.4282,3
0.4196,1.7773,-0.4242,3
0.4196,1.7773,-0.4242,3
0.4151,1.4814,-0.2539,3
0.4773,1.2056,-0.0932,3
