accx,accy,accz,label
-0.845,-2.9084,0.5489,2
-0.6287,-3.1392,0.6178,2
-0.1186,-2.659,0.7408,2
0.221,-1.1522,0.3702,2
0.3685,1.5307,-0.5522,2
0.388,2.5841,-0.8854,2
0.2954,2.9106,-0.9603,2
0.0983,2.5602,-0.9828,2
0.0983,2.5602,-0.9828,2
0.0811,2.3343,-0.9222,2
0.1128,1.7215,-0.6832,2
0.1504,1.4525,-0.4839,2
0.2315,1.5657,-0.6246,2
0.2212,1.5422,-0.6185,2
0.2499,1.7207,-0.621,2
0.2484,1.9663,-0.7247,2
0.2376,1.7682,-0.7532,2
0.1404,1.1284,-0.4637,2
0.1404,1.1284,-0.4637,2
0.0709,0.7467,-0.1171,2
-0.0356,0.1195,0.3629,2
-0.0966,-0.3663,0.6912,2
-0.1735,-0.9648,1.0841,2
-0.2023,-1.1783,1.2555,2
-0.2173,-1.3564,1.3996,2
-0.3077,-1.2806,1.1612,2
-0.4422,-1.8919,1.102,2
-0.5915,-2.7209,1.5703,2
-0.5915,-2.7209,1.5703,2
-0.6914,-3.3269,1.6643,2
-0.4411,-2.7585,1.3182,2
0.1452,1.1912,-0.2888,2
0.1452,1.1912,-0.2888,2
0.0999,1.6542,-0.625,2
0.0035,1.3316,-0.779,2
-0.0194,0.8705,-0.6257,2
-0.0348,0.9823,-0.7053,2
-0.0397,0.9597,-0.6483,2
-0.0435,0.9577,-0.4875,2
-0.02,0.8206,-0.2406,2
0.0951,1.1629,-0.1893,2
0.0951,1.1629,-0.1893,2
0.3797,2.1388,-0.6415,2
0.3797,2.1388,-0.6415,2
0.3972,2.0345,-0.7407,2
0.361,1.9467,-0.7549,2
0.2264,1.5382,-0.7801,2
0.0039,0.7338,-0.5339,2
-0.1336,0.2173,-0.4203,2
-0.4267,-0.6546,-0.1074,2
-0.5916,-1.6518,0.1897,2
-0.6801,-2.2449,0.4334,2
-0.8077,-2.2153,0.4622,2
-0.8077,-2.2153,0.4622,2
-0.8733,-2.3754,0.4796,2
-0.9054,-2.5566,0.3786,2
-1.0245,-2.7553,0.246,2
-1.049,-3.2303,0.4871,2
-0.9612,-3.4884,0.6176,2
-0.3579,-2.7477,0.7556,2
0.1163,-0.473,0.1038,2
0.2194,2.0505,-0.7008,2
0.0195,2.7665,-0.9344,2
-0.0868,3.0273,-1.0344,2
-0.3084,2.8861,-1.2816,2
-0.3095,2.4958,-1.2374,2
-0.2798,2.1495,-0.9539,2
-0.3604,1.5231,-0.6184,2
-0.3303,1.4701,-0.6295,2
-0.313,1.3616,-0.5854,2
-0.2573,1.2619,-0.5447,2
-0.1682,1.2639,-0.1164,2
-0.113,1.3735,-0.213,2
-0.0979,1.3559,-0.2975,2
-0.078,1.248,-0.3669,2
-0.0896,0.8909,-0.0993,2
-0.1205,0.3425,0.2745,2
-0.0959,-0.2702,0.6282,2
-0.0959,-0.2702,0.6282,2
-0.1395,-0.6671,0.8136,2
-0.1636,-0.8242,0.8152,2
-0.1333,-0.9403,0.9942,2
-0.1475,-1.3329,1.1218,2
-0.1462,-1.4485,1.1038,2
-0.1759,-1.5253,1.0591,2
-0.3403,-2.2294,1.2769,2
-0.4569,-2.9431,1.4667,2
-0.2845,-2.7215,1.2442,2
-0.0772,-1.3458,0.7957,2
0.1373,0.8252,-0.0978,2
0.1516,1.1102,-0.1722,2
0.1597,1.4048,-0.7586,2
0.0985,0.9862,-0.5339,2
0.1077,0.9306,-0.5468,2
0.0736,0.9896,-0.6246,2
0.1096,1.263,-0.5751,2
0.1221,1.4375,-0.3988,2
0.1352,1.9774,-0.4938,2
0.2061,2.1148,-0.4661,2
0.2525,1.9209,-0.5005,2
0.3426,1.8783,-0.5354,2
0.4079,1.9705,-0.6317,2
0.3924,1.6923,-0.5903,2
0.3924,1.6923,-0.5903,2
0.4417,1.6098,-0.6325,2
0.3351,1.4229,-0.6246,2
0.2407,0.9772,-0.5995,2
0.1118,0.5996,-0.4515,2
0.006,0.4379,-0.4099,2
-0.0823,0.1805,-0.3308,2
-0.1578,-0.1081,-0.2806,2
-0.2812,-0.2836,-0.0923,2
-0.3233,-0.3709,-0.0661,2
-0.5028,-0.6359,-0.0921,2
-0.6203,-0.9325,0.0219,2
-0.8654,-1.5252,0.3053,2
-1.1328,-1.6934,0.169,2
-1.1328,-1.6934,0.169,2
-1.254,-1.8453,0.1103,2
-1.3799,-2.2649,0.1897,2
-1.3188,-2.3131,0.4234,2
-0.5141,0.2815,-0.2911,2
-0.2959,1.3339,-0.6207,2
-0.2556,2.3622,-1.0381,2
-0.3607,2.5418,-1.1021,2
-0.6162,1.7795,-0.911,2
-0.8083,0.6596,-0.4412,2
-0.7908,0.6253,-0.392,2
-0.7767,0.4778,-0.3121,2
-0.6851,0.125,-0.2527,2
-0.5148,-0.0432,-0.0092,2
-0.1602,0.0326,0.2194,2
0.0231,0.3545,0.11,2
0.2266,0.7705,0.021,2
0.3248,1.256,-0.0182,2
0.3172,1.3135,0.1116,2
0.327,0.8041,0.1635,2
0.3388,0.5194,0.1631,2
0.3434,0.4704,0.1594,2
0.3655,0.5652,0.2257,2
0.327,0.4821,0.42,2
0.3048,0.1594,0.506,2
0.2838,0.0584,0.4901,2
0.2378,-0.1793,0.5572,2
0.1314,-0.8587,0.8268,2
-0.0166,-1.2823,1.1594,2
-0.096,-1.4099,1.1917,2
-0.0565,-1.3142,0.9944,2
-0.0643,-1.4754,0.9304,2
0.1764,-1.151,0.809,2
0.4099,0.1329,0.3301,2
0.3924,1.0832,-0.1953,2
0.3924,1.0832,-0.1953,2
0.4167,1.2516,-0.2651,2
0.3757,1.3576,-0.4672,2
0.2082,0.6634,-0.3993,2
0.1106,-0.681,0.0661,2
0.2114,-0.6544,0.2786,2
0.2437,-0.3515,0.2569,2
0.4148,0.0163,0.0245,2
0.481,0.1778,-0.21,2
0.5715,0.4642,-0.4418,2
0.6296,0.8081,-0.7268,2
0.5824,0.8192,-0.8785,2
0.4906,0.6342,-1.0195,2
0.4277,0.4232,-0.942,2
0.4277,0.4232,-0.942,2
0.3394,0.1729,-1.048,2
0.2818,-0.1251,-1.1064,2
0.2126,-0.6033,-0.9012,2
0.1633,-1.1104,-0.4719,2
0.1263,-1.1745,-0.413,2
0.085,-1.1065,-0.4553,2
-0.1242,-1.4203,-0.3144,2
-0.3082,-2.1002,0.0679,2
-0.2658,-2.5701,0.2892,2
0.4615,-0.6539,-0.2248,2
0.4615,-0.6539,-0.2248,2
0.6497,0.7756,-0.7902,2
0.5534,1.633,-0.9935,2
0.3829,1.5939,-0.8252,2
0.0051,1.1324,-0.7368,2
-0.1181,0.8502,-0.6263,2
-0.1663,0.0803,-0.4632,2
-0.1187,-0.4407,-0.2814,2
-0.0276,-0.3562,-0.3224,2
0.1636,0.048,-0.2144,2
0.203,0.1051,-0.2498,2
0.2394,0.3404,-0.2205,2
0.2645,0.3936,0.1406,2
0.2645,0.3936,0.1406,2
0.1959,0.1824,0.2834,2
0.1988,0.3315,0.2408,2
0.1562,0.3506,0.2989,2
0.1529,0.3565,0.3136,2
0.1125,0.2536,0.685,2
-0.0137,-0.1966,0.8191,2
-0.0728,-0.4527,0.9729,2
-0.2343,-0.867,1.1233,2
-0.3258,-1.0505,1.2092,2
-0.5853,-2.0644,1.3889,2
-0.7387,-2.6614,1.5759,2
-0.7832,-2.8424,1.6092,2
-0.7396,-3.1993,1.6847,2
-0.393,-2.0542,1.2946,2
-0.075,-0.0689,0.4381,2
-0.1323,1.2263,-0.3329,2
-0.1553,1.2675,-0.4421,2
-0.2416,1.1311,-0.4218,2
-0.3346,0.9142,-0.4843,2
-0.3906,0.7181,-0.6062,2
-0.4408,0.6272,-0.5379,2
-0.4687,0.672,-0.5284,2
-0.3798,0.7402,-0.5298,2
-0.2772,0.8556,-0.5365,2
-0.1845,1.0228,-0.491,2
0.0259,1.1794,-0.569,2
0.1226,1.2098,-0.6552,2
0.1658,1.1373,-0.6061,2
0.1009,0.8216,-0.5272,2
0.1266,0.6069,-0.5226,2
0.0931,0.5774,-0.4476,2
-0.0577,0.452,-0.3965,2
-0.1635,-0.142,-0.2279,2
-0.3015,-0.8405,-0.0333,2
-0.3804,-1.2852,0.1175,2
-0.3804,-1.2852,0.1175,2
-0.427,-1.4713,0.1197,2
-0.3991,-1.6058,0.1246,2
-0.5206,-2.1723,0.2412,2
-0.6789,-2.7535,0.3571,2
-0.6566,-2.8816,0.3353,2
-0.4829,-2.8729,0.1252,2
-0.2378,-2.7012,-0.0209,2
0.2524,-1.114,-0.0667,2
0.4376,0.7243,-0.5116,2
0.4342,1.0259,-0.5696,2
0.4086,1.6852,-0.7063,2
0.3918,2.1182,-0.7749,2
0.3237,2.0922,-0.851,2
0.1057,1.7625,-0.794,2
0.0766,1.4799,-0.7592,2
0.07,1.2349,-0.6915,2
0.1293,1.2579,-0.5614,2
0.1457,1.3197,-0.4447,2
0.2325,1.4313,-0.5226,2
0.2619,1.4537,-0.4132,2
0.1708,1.3172,-0.3138,2
0.1851,1.123,-0.229,2
0.105,0.7468,0.0138,2
-0.0505,0.3175,0.3731,2
-0.0505,0.3175,0.3731,2
-0.0887,0.2172,0.4419,2
-0.1866,-0.072,0.6777,2
-0.2338,-0.3496,0.8509,2
-0.245,-0.615,1.038,2
-0.1888,-0.6427,1.0086,2
-0.3092,-1.047,1.0416,2
-0.3833,-1.5501,1.1789,2
-0.4821,-2.0034,1.3595,2
-0.4321,-2.5444,1.4621,2
-0.4321,-2.5444,1.4621,2
-0.2188,-1.9909,1.2663,2
0.0347,-0.8396,0.708,2
0.1779,0.3648,0.06,2
0.0907,0.758,-0.2733,2
-0.0396,0.7208,-0.3198,2
-0.1231,0.7906,-0.422,2
-0.1964,0.9602,-0.5892,2
-0.2679,1.148,-0.7552,2
-0.2973,1.2236,-0.7381,2
-0.2973,1.2236,-0.7381,2
-0.2458,1.086,-0.6069,2
-0.246,1.0017,-0.4647,2
-0.0204,1.5089,-0.8621,2
-0.0204,1.5089,-0.8621,2
-0.0088,1.6645,-0.8809,2
-0.0098,1.502,-0.8319,2
-0.1264,1.3414,-0.6628,2
-0.2308,1.0388,-0.4836,2
-0.3439,0.6693,-0.3719,2
-0.4051,0.2741,-0.2207,2
-0.5573,-0.5344,0.0213,2
-0.6383,-1.0465,0.1953,2
-0.7009,-1.3277,0.2976,2
-0.7476,-1.9941,0.3718,2
-0.7476,-1.9941,0.3718,2
-0.7837,-2.3764,0.4527,2
-0.8282,-2.8212,0.539,2
-0.859,-3.1832,0.552,2
-0.78,-3.2678,0.5708,2
-0.5735,-3.0159,0.5422,2
-0.1906,-2.0869,0.2497,2
0.1455,-0.6247,-0.2556,2
0.2656,0.8506,-0.7595,2
0.1324,1.6589,-0.9499,2
0.0081,1.7984,-0.8961,2
-0.1872,1.9024,-0.8991,2
-0.2683,1.7091,-0.742,2
-0.3195,1.5872,-0.6777,2
-0.4194,1.7842,-0.6809,2
-0.4194,1.7842,-0.6809,2
-0.3878,1.8012,-0.7053,2
-0.2978,1.8137,-0.7422,2
-0.2027,2.1204,-0.6672,2
-0.1085,2.1277,-0.8253,2
0.0175,1.9128,-0.7738,2
0.0171,1.6831,-0.6497,2
0.0085,1.5646,-0.5678,2
0.0118,0.8928,-0.1446,2
0.0183,0.2211,0.1313,2
0.0183,0.2211,0.1313,2
0.0077,0.0267,0.3469,2
-0.0474,-0.2188,0.5625,2
-0.0136,-0.3926,0.6132,2
0.0084,-0.4321,0.7012,2
-0.0682,-0.7605,0.8752,2
-0.1419,-1.0381,0.838,2
-0.2858,-1.4577,0.7374,2
-0.4934,-2.369,0.8145,2
-0.5406,-2.9336,0.8606,2
-0.3141,-3.0737,1.0078,2
0.0265,-1.9779,0.7755,2
0.3334,-0.4526,0.0947,2
0.3083,0.3534,-0.3407,2
0.3083,0.3534,-0.3407,2
0.251,0.495,-0.2796,2
0.0808,0.4166,-0.2361,2
0.0684,0.7437,-0.4138,2
-0.0081,1.2027,-0.5501,2
-0.0969,1.3536,-0.5274,2
-0.1519,1.5589,-0.5156,2
-0.1104,1.6968,-0.5339,2
-0.1224,1.7837,-0.537,2
-0.1242,1.9349,-0.5406,2
-0.1242,1.9349,-0.5406,2
-0.1164,1.6758,-0.4992,2
-0.1512,1.4091,-0.5925,2
-0.1694,1.3296,-0.5843,2
-0.3671,0.3821,-0.367,2
-0.4564,-0.5586,-0.1553,2
-0.5889,-1.2792,0.0712,2
-0.7302,-1.7485,0.1744,2
-0.8318,-1.9504,0.2128,2
-0.9009,-2.4244,0.4215,2
-0.9009,-2.4244,0.4215,2
-0.8741,-2.2556,0.2802,2
-0.9283,-2.4397,0.2553,2
-0.77,-2.2946,0.4118,2
-0.7099,-2.2983,0.4548,2
-0.5441,-2.0263,0.447,2
-0.1354,-0.7809,0.0279,2
0.3349,0.957,-0.5761,2
0.3356,1.7071,-0.9052,2
0.317,1.8472,-0.9506,2
0.2823,1.815,-0.9484,2
0.1485,1.7835,-0.8364,2
0.0854,1.778,-0.7364,2
0.0865,1.6602,-0.6487,2
0.1581,1.2276,-0.5967,2
0.1581,1.2276,-0.5967,2
0.2441,0.9972,-0.4879,2
0.2735,0.8835,-0.4842,2
0.3152,1.0536,-0.5624,2
0.3422,1.3028,-0.5494,2
0.291,1.2163,-0.3829,2
0.2209,0.9509,-0.1444,2
0.0735,0.6369,0.1265,2
-0.0162,0.549,0.2367,2
-0.1411,0.2607,0.625,2
-0.1411,0.2607,0.625,2
-0.2043,0.0486,0.7566,2
-0.1698,-0.3793,0.8608,2
-0.2487,-0.5087,0.8874,2
-0.2487,-0.5087,0.8874,2
-0.3243,-0.6621,0.82,2
-0.4033,-0.9182,0.7641,2
-0.5409,-1.6207,1.1272,2
-0.6514,-2.2952,1.2242,2
-0.2269,-1.9402,0.7781,2
0.0988,-1.1105,0.4368,2
0.2353,-0.071,-0.0335,2
0.1153,0.3506,-0.3682,2
0.0598,0.4799,-0.4638,2
0.0222,0.563,-0.5312,2
0.0222,0.563,-0.5312,2
0.0133,0.6179,-0.6925,2
0.028,0.741,-0.7158,2
0.0318,0.7295,-0.7536,2
0.0881,0.9995,-0.7058,2
0.1188,1.1844,-0.755,2
0.2357,1.6187,-0.8224,2
0.3052,1.7746,-0.9252,2
0.3218,1.8537,-1.0036,2
0.3192,1.5138,-0.98,2
0.3192,1.5138,-0.98,2
0.2132,1.2024,-0.8795,2
0.0079,0.6469,-0.6786,2
-0.363,-0.8629,-0.169,2
-0.363,-0.8629,-0.169,2
-0.4351,-1.2724,-0.0818,2
-0.5536,-1.935,0.1171,2
-0.6905,-2.3556,0.1913,2
-0.8133,-2.6573,0.2813,2
-0.8841,-3.1063,0.5197,2
-0.9386,-3.1294,0.5051,2
-1.0165,-3.3461,0.6101,2
-0.7287,-2.9307,0.7186,2
-0.3293,-1.6319,0.2615,2
0.1639,1.0915,-0.6732,2
0.1639,1.0915,-0.6732,2
0.1398,1.3976,-0.7488,2
0.0588,1.6296,-0.6454,2
-0.0147,1.7297,-0.5033,2
-0.1631,2.0774,-0.5571,2
-0.1725,2.1467,-0.55,2
-0.2666,2.1405,-0.5247,2
-0.2555,1.924,-0.3895,2
-0.2473,1.5262,-0.0751,2
-0.2473,1.5262,-0.0751,2
-0.1205,1.3301,-0.226,2
0.0272,0.9903,-0.2218,2
0.1547,0.945,-0.1225,2
0.193,0.9185,-0.0815,2
0.179,0.8391,-0.0557,2
0.2371,0.7278,0.0139,2
0.3219,0.7865,-0.0069,2
0.2828,0.5493,0.2262,2
0.262,0.3912,0.436,2
0.2606,0.1307,0.5096,2
0.2588,-0.1936,0.5273,2
0.1978,-0.4419,0.6061,2
0.1413,-0.5615,0.6559,2
0.0992,-0.7216,0.5567,2
0.0992,-0.7216,0.5567,2
-0.0131,-0.9403,0.5152,2
-0.1164,-1.1623,0.5402,2
-0.2626,-1.819,0.6192,2
-0.1419,-2.1624,0.5145,2
0.0097,-1.8649,0.3958,2
0.3241,-0.9454,-0.0184,2
0.3653,-0.2314,-0.5504,2
0.2807,0.1408,-0.6628,2
0.1473,0.6056,-0.7695,2
0.1292,0.6737,-0.8156,2
0.0753,0.7086,-0.8694,2
0.0009,0.7704,-0.9721,2
-0.2644,1.3085,-0.999,2
-0.2644,1.3085,-0.999,2
-0.2935,1.2991,-0.8422,2
-0.3189,1.1774,-0.752,2
-0.2207,1.0704,-0.7035,2
-0.1982,0.9502,-0.8032,2
-0.1086,0.5687,-0.7401,2
-0.0774,0.5439,-0.7392,2
-0.1306,0.5975,-0.7793,2
-0.1817,0.6428,-0.6828,2
-0.1865,0.5766,-0.5477,2
-0.2111,0.7296,-0.5303,2
-0.2111,0.7296,-0.5303,2
-0.238,0.717,-0.4671,2
-0.2823,0.5331,-0.3883,2
-0.3274,0.3108,-0.2921,2
-0.3912,0.267,-0.2621,2
-0.4875,0.3177,-0.2903,2
-0.5694,0.271,-0.1981,2
-0.5565,0.0271,-0.0295,2
-0.6366,-0.6375,0.1636,2
-0.6808,-1.3326,0.3893,2
-0.6808,-1.3326,0.3893,2
-0.7714,-1.6128,0.4685,2
-0.752,-1.649,0.555,2
-0.7578,-2.2824,1.0265,2
-0.7578,-2.2824,1.0265,2
-0.678,-2.5478,1.2288,2
-0.5275,-2.3925,0.9762,2
-0.2214,-1.868,0.6573,2
-0.0061,-1.2337,0.4429,2
0.1174,-0.144,-0.0385,2
0.1283,0.1329,-0.1874,2
0.1648,0.9597,-0.409,2
0.1429,1.4443,-0.5163,2
0.1955,1.7367,-0.4684,2
0.1788,1.6525,-0.3141,2
0.1788,1.6525,-0.3141,2
0.199,1.5582,-0.0895,2
0.1789,1.5389,-0.1112,2
0.2223,1.5633,-0.1249,2
0.2873,1.2285,-0.0822,2
0.2906,1.0483,-0.0921,2
0.3121,0.7103,-0.097,2
0.3489,0.5263,-0.2193,2
0.3611,0.4603,-0.2196,2
0.3837,0.2724,-0.1913,2
0.3837,0.2724,-0.1913,2
0.3554,0.2083,-0.1031,2
0.3363,0.1714,-0.0072,2
0.3326,0.1378,-0.0147,2
0.278,-0.1441,0.066,2
0.2183,-0.4814,0.266,2
