accx,accy,accz,label
0.3601,-0.0448,-0.2952,6
0.1118,0.1642,0.1118,6
0.0492,0.1939,0.3614,6
0.6016,0.1188,0.3785,6
0.6016,0.1188,0.3785,6
0.6081,0.081,0.224,6
0.0342,0.1497,0.048,6
-0.2146,0.0975,-0.1568,6
0.1988,-0.0839,-0.5978,6
0.1025,-0.0896,-0.6166,6
-0.305,-0.0423,-0.4889,6
-1.1763,0.1149,-0.0605,6
-0.7175,0.3494,0.1786,6
0.3102,0.4333,0.0047,6
0.249,0.2651,-0.184,6
0.0184,0.8005,0.2384,6
-0.3224,0.4908,0.0354,6
-0.1635,0.5179,-0.0275,6
0.2362,0.0863,-0.7409,6
0.1351,0.0222,-0.5515,6
-0.0273,0.0292,-0.4547,6
0.108,-0.0731,-0.7047,6
0.2757,-0.3554,-0.9441,6
0.5994,-0.3897,-0.8337,6
0.5994,-0.3897,-0.8337,6
0.812,-0.3508,-0.6007,6
1.1801,-0.1564,-0.5675,6
1.1434,-0.0674,-0.8779,6
-0.4046,-0.0586,0.0304,6
-0.6693,-0.0792,0.2949,6
-0.5963,-0.1092,0.3715,6
-0.4097,-0.0996,0.5522,6
0.0335,-0.1166,0.3615,6
0.0126,0.0576,-0.1614,6
-0.2171,0.4927,-0.9896,6
-0.6567,0.6942,-2.0195,6
-1.1266,0.8991,-3.3808,6
-0.8284,1.005,-1.6563,6
0.0839,0.9751,0.7741,6
0.2758,0.7439,1.2859,6
0.4204,0.5695,1.4227,6
1.0895,0.2083,1.3679,6
1.4309,-0.1184,0.9437,6
1.8356,-0.0886,0.4195,6
1.9747,-0.2158,0.3039,6
1.7299,-0.3994,0.2442,6
1.1098,-0.4385,0.1833,6
0.5212,-0.309,0.0686,6
0.1817,-0.18,0.1808,6
2.1209,-0.2201,0.4672,6
2.1209,-0.2201,0.4672,6
3.2985,-0.1131,0.749,6
3.992,-0.3336,0.5502,6
2.4589,-1.4817,-0.086,6
1.3917,-1.7135,-0.7885,6
1.3917,-1.7135,-0.7885,6
-0.1813,-1.6605,-0.8503,6
-0.7667,-1.2122,-0.2213,6
-2.3829,-1.2718,0.4123,6
-2.2898,-1.1361,0.2914,6
-2.0931,-1.2544,-0.0244,6
-1.6637,-1.2191,-0.121,6
-0.3828,-1.0659,-0.3547,6
-0.3056,-1.6154,-0.3823,6
-0.03,-1.6485,-1.1267,6
0.2703,-1.4828,-1.15,6
0.6648,-1.0658,-1.0163,6
0.6312,-1.104,-0.6789,6
0.2763,-1.0612,0.5012,6
0.243,-0.9086,0.2026,6
0.5124,-0.6989,-0.1058,6
1.0706,-0.6133,-0.237,6
1.2131,-0.5836,-0.0501,6
1.4217,-0.4068,-0.0326,6
1.6691,-0.3325,0.0458,6
2.0021,-0.1843,0.2245,6
2.0138,0.0036,0.3895,6
2.148,0.1763,0.197,6
1.3428,0.1546,-0.2288,6
0.5372,0.1107,-0.3703,6
-0.104,-0.1289,-0.1922,6
-0.7169,-0.3598,-0.0075,6
-0.3847,-0.1001,-0.1588,6
-0.1345,-0.2503,-0.3319,6
-0.0027,-0.5152,-0.5037,6
-0.1455,-0.5986,-0.4274,6
-0.0752,-0.645,-0.2663,6
0.9692,-0.4518,0.3454,6
1.1945,-0.2941,0.5222,6
1.2126,-0.3214,0.5109,6
1.0087,-0.0273,0.2158,6
1.0544,-0.0384,-0.2721,6
1.6167,-0.0739,-0.6091,6
1.551,-0.2066,-0.479,6
1.3273,-0.2719,-0.171,6
1.0236,-0.1564,-0.4959,6
0.3435,0.4406,-1.1203,6
-0.2103,0.7823,-0.9509,6
-0.1549,0.6219,-0.4466,6
-0.3229,0.4046,-0.164,6
-0.8793,0.2212,0.6285,6
-1.8092,0.2175,1.0495,6
-0.9758,0.4773,0.5032,6
0.0887,0.51,0.3268,6
0.1324,0.4892,0.481,6
0.1861,0.4013,0.8596,6
0.4364,0.6354,1.0215,6
0.7874,0.8256,0.5549,6
0.7934,0.8393,0.3088,6
0.6588,0.8481,0.1776,6
0.1011,0.5523,0.4313,6
-0.3543,-0.3551,0.9832,6
0.5733,-0.6753,0.0463,6
1.0694,-0.6092,-0.3485,6
2.2446,-0.4858,-0.7476,6
2.8172,-0.5485,-1.0286,6
2.0688,-0.7919,-0.82,6
1.0888,-0.6081,-0.2645,6
0.4917,-0.4991,-0.3028,6
0.3533,-0.4111,-0.3483,6
-0.2561,-0.2388,-0.6853,6
-0.9014,-0.1477,-0.7698,6
-1.2572,-0.1034,-0.7029,6
-1.8532,0.0287,-0.6986,6
-2.0028,0.0654,-0.4416,6
-1.9585,0.0933,-0.2576,6
-1.5519,0.2542,-0.041,6
-0.5874,0.2328,0.0094,6
0.165,0.1332,0.1676,6
0.4502,0.1577,0.2564,6
0.951,0.2929,0.4534,6
1.2206,0.1962,0.3181,6
1.4309,0.1021,0.1929,6
1.1665,0.1932,0.1707,6
1.0521,0.1743,0.081,6
0.6404,0.1826,-0.0512,6
0.1843,0.1102,-0.1675,6
-0.2381,-0.0323,-0.2688,6
-0.3237,-0.1072,-0.161,6
-0.4294,0.0191,-0.0989,6
-0.2476,-0.0281,-0.0795,6
-0.1351,-0.0623,-0.0101,6
0.1108,-0.0541,-0.0652,6
0.1863,-0.0108,-0.0067,6
0.0586,0.0508,0.1124,6
0.1735,-0.0318,-0.0799,6
0.1315,-0.0926,-0.1494,6
0.0934,-0.1759,-0.0633,6
0.1121,-0.1469,-0.1749,6
0.0898,-0.1277,-0.1905,6
-0.0628,-0.1769,-0.2242,6
-0.1032,-0.1864,-0.2294,6
-0.0888,-0.0775,-0.068,6
-0.0728,-0.0538,-0.0318,6
-0.0319,-0.0628,-0.0416,6
-0.0176,0.0862,0.0808,6
0.21,0.2109,-0.0102,6
0.177,0.1492,-0.034,6
0.1464,0.08,-0.0761,6
0.1396,0.0345,-0.0847,6
0.2364,0.0548,-0.0099,6
0.0011,0.0573,-0.0405,6
0.0477,0.0179,-0.0869,6
0.2114,-0.0124,-0.0921,6
0.1498,-0.0468,-0.074,6
0.0212,-0.0472,-0.0394,6
-0.0331,-0.0061,-0.0566,6
0.0806,-0.0805,-0.2012,6
0.0693,-0.0493,-0.1698,6
-0.0402,0.0103,-0.0065,6
0.0147,-0.0232,-0.0735,6
0.1217,-0.0758,-0.2224,6
-0.0599,-0.0249,0.0054,6
-0.0172,-0.034,-0.0441,6
0.0162,-0.0465,-0.0909,6
0.1816,-0.072,-0.1551,6
0.2164,-0.0538,-0.1435,6
0.1009,0.0619,-0.1138,6
0.1009,0.0619,-0.1138,6
0.1142,0.0256,-0.1118,6
-0.0284,0.0909,-0.0433,6
0.0209,0.017,-0.1598,6
-0.0725,0.0906,-0.016,6
-0.0553,0.0579,-0.0375,6
-0.0553,0.0579,-0.0375,6
-0.0823,0.0555,0.0121,6
-0.0736,0.0315,-0.1117,6
0.0918,-0.0726,-0.1019,6
0.0859,-0.0659,-0.1588,6
0.0645,-0.029,-0.0489,6
0.0144,-0.0212,-0.0569,6
-0.0237,-0.004,-0.0723,6
-0.0635,0.0285,-0.133,6
0.0495,-0.009,-0.0848,6
0.0542,-0.0054,-0.0393,6
0.0324,-0.0111,-0.0557,6
0.1228,-0.0224,-0.0335,6
0.1228,-0.0224,-0.0335,6
0.0983,-0.0337,-0.1128,6
0.1142,0.0059,-0.0535,6
0.0799,-0.024,0.0066,6
0.1364,-0.0305,-0.0598,6
0.1364,-0.0305,-0.0598,6
0.0386,-0.0299,-0.0366,6
0.0222,-0.0192,-0.0706,6
0.047,-0.0121,-0.0888,6
0.0353,-0.0069,-0.0703,6
0.0443,0.0086,-0.0928,6
0.0231,0.0231,-0.046,6
0.0901,-0.0418,-0.067,6
0.0775,-0.0319,-0.0617,6
0.0672,0.0109,-0.0795,6
0.0456,0.0454,-0.1259,6
0.0302,0.0171,-0.1066,6
-0.015,-0.0107,-0.0558,6
0.0568,-0.0495,-0.0819,6
0.0728,0.0275,-0.1279,6
0.0409,0.029,-0.1474,6
0.0301,0.0181,-0.1368,6
0.0097,-0.0177,-0.1388,6
0.0403,-0.0258,-0.0802,6
0.0329,0.0212,-0.0497,6
-0.0163,-0.0524,-0.0468,6
-0.0163,-0.0524,-0.0468,6
0.0137,0.063,-0.0572,6
0.0311,0.0253,-0.1004,6
0.1469,-0.0645,-0.2193,6
-0.0015,-0.0088,-0.0959,6
0.008,0.0196,-0.0656,6
-0.0014,0.0231,-0.0282,6
0.1637,-0.0193,-0.1081,6
0.0539,-0.0072,-0.0754,6
0.0264,0.0327,-0.0632,6
0.1127,0.0222,-0.118,6
0.0752,-0.0011,-0.0468,6
0.0443,-0.003,0.0126,6
0.0438,-0.003,-0.104,6
-0.0068,0.0054,-0.0798,6
-0.0068,0.0054,-0.0798,6
0.0345,-0.06,-0.1486,6
-0.0452,-0.0551,-0.0684,6
0.0462,-0.0561,-0.0105,6
0.0662,-0.0464,-0.0348,6
0.1236,-0.0322,-0.1115,6
0.0623,0.0435,0.0249,6
0.0759,0.0331,-0.0403,6
0.0152,0.0233,0.022,6
0.0216,-0.0146,-0.0806,6
0.0488,-0.0264,-0.1426,6
0.0691,-0.0039,-0.1346,6
-0.0783,0.06,-0.1124,6
0.1232,0.0133,-0.0511,6
0.1274,-0.0117,0.0014,6
0.1274,-0.0117,0.0014,6
0.1639,-0.0021,-0.0457,6
0.1159,-0.0308,-0.1901,6
0.3041,-0.0245,-0.1882,6
0.3918,-0.0296,-0.2705,6
0.4796,-0.093,-0.2901,6
0.4104,-0.0707,-0.2386,6
0.2946,-0.0135,-0.3153,6
0.0784,-0.0981,-0.1241,6
-0.0344,-0.0734,-0.0408,6
-0.2512,0.014,-0.0226,6
-0.1936,0.1537,-0.1025,6
-0.1336,0.1557,-0.2607,6
0.0351,0.1869,-0.3888,6
0.0058,0.2396,-0.3645,6
-0.0022,0.2735,-0.3122,6
-0.1585,0.2559,-0.4471,6
-0.1789,0.2151,-0.6999,6
-0.109,0.1261,-0.8837,6
-0.1894,0.0847,-0.8723,6
-0.3632,-0.0147,-0.6683,6
-0.6936,-0.1725,-0.259,6
-0.7924,-0.1188,0.1367,6
-0.9111,0.1393,0.3374,6
-0.8827,0.2458,0.2767,6
-0.8767,0.4558,0.1586,6
-0.8558,0.7596,0.1399,6
-0.8539,0.9295,0.0711,6
-0.9837,1.1583,-0.075,6
-0.8628,1.1336,-0.1191,6
-0.7553,1.0639,-0.1615,6
-0.7549,1.0777,-0.1581,6
-0.3734,0.7927,-0.0708,6
0.1229,0.2874,-0.064,6
0.2126,0.1772,-0.0908,6
0.2442,0.0822,-0.098,6
0.069,-0.0643,-0.0351,6
-0.0959,-0.2001,0.0074,6
-0.3736,-0.2656,-0.0383,6
-0.4407,-0.2436,-0.0937,6
-0.5262,-0.2227,-0.2169,6
-0.5772,-0.1642,-0.1411,6
-0.6149,-0.0745,-0.1193,6
-0.5165,0.0823,-0.2281,6
-0.4381,0.0505,-0.2592,6
-0.5454,0.0085,-0.2095,6
-0.711,-0.0375,-0.1696,6
-0.6463,-0.0678,-0.0848,6
-0.4496,-0.1248,0.0247,6
-0.4068,-0.1222,0.0271,6
-0.299,-0.1935,0.0444,6
-0.1282,-0.2081,-0.0144,6
-0.0362,-0.0971,-0.0484,6
-0.0756,0.0671,0.0099,6
-0.0809,0.1268,0.1126,6
-0.1877,0.1103,0.0063,6
-0.263,0.1773,0.0202,6
-0.6036,0.4241,0.218,6
-0.7414,0.4043,0.2523,6
-0.8137,0.3392,0.138,6
-0.7437,0.3232,-0.1647,6
-0.599,0.2974,-0.1478,6
-0.5813,0.2048,0.1992,6
-0.5606,0.1166,0.2509,6
-0.323,-0.0344,0.2465,6
-0.1127,0.1099,0.3588,6
-0.0281,0.1871,0.3177,6
-0.0046,0.2075,0.1139,6
-0.0452,0.1293,0.1566,6
-0.3911,0.1318,0.3489,6
-0.7101,0.0922,0.3205,6
-0.8714,0.1662,0.0669,6
-1.199,0.4455,0.4404,6
-1.6365,0.6009,0.6005,6
-1.5636,0.5506,0.597,6
-1.3587,0.4024,0.3909,6
-1.4882,0.5103,0.6067,6
-1.5905,0.5599,0.8334,6
-1.7675,0.5343,1.0325,6
-1.9552,0.4772,1.1286,6
-1.7389,0.2777,1.2613,6
-1.6927,0.4704,1.2025,6
-1.5439,0.593,1.319,6
-1.2312,0.3571,1.4725,6
-1.0371,0.3094,1.5014,6
-0.5498,0.3291,1.4584,6
-0.6231,0.2765,1.0417,6
-0.7673,-0.0063,0.9008,6
-0.7277,-0.2066,1.0683,6
-1.0069,-0.3602,1.1247,6
-1.0763,-0.5945,0.8735,6
-1.0221,-0.5676,1.0848,6
-1.0087,-0.0271,1.3762,6
-1.019,0.4347,1.4328,6
-1.0378,0.5257,1.2724,6
-1.2567,0.5385,0.8499,6
-1.2972,0.5769,0.1348,6
-1.2888,0.5712,-0.0799,6
-1.0366,0.2012,-0.3609,6
-0.8874,-0.1926,-0.4725,6
-0.8479,-0.4728,-0.5539,6
-0.6687,-0.7631,-0.4692,6
-0.4036,-0.6706,-0.2988,6
-0.5897,-0.7148,-0.3791,6
-0.6169,-0.6074,-0.5493,6
-0.6026,-0.3437,-0.8909,6
-0.6193,-0.1059,-1.0314,6
-0.5856,0.1341,-0.7076,6
-0.2815,0.192,-0.9014,6
-0.0842,0.1036,-0.9156,6
-0.0336,0.0402,-0.7828,6
-0.0202,0.0212,-0.6374,6
0.0635,-0.0262,-0.507,6
0.0877,0.0101,-0.72,6
-0.0938,-0.0645,-0.85,6
0.0396,-0.3465,-0.9189,6
0.0785,-0.4773,-0.8163,6
-0.109,-0.6288,-0.6977,6
-0.109,-0.6288,-0.6977,6
0.2507,-0.2282,-0.7521,6
0.463,0.0316,-0.6241,6
0.4709,0.11,-0.3798,6
0.9349,0.0678,-0.3326,6
0.9349,0.0678,-0.3326,6
1.3556,-0.2786,-0.4105,6
1.4337,-0.4167,-0.6002,6
1.1381,-0.4437,-0.5636,6
0.4698,-0.5868,-0.2252,6
0.4698,-0.5868,-0.2252,6
0.2235,-0.6346,-0.1794,6
0.1395,-0.7178,-0.1029,6
-0.1474,-0.7512,-0.0015,6
-0.5413,-0.5408,0.4945,6
-0.4628,-0.4407,0.6033,6
-0.2757,-0.1709,0.5802,6
-0.3232,0.0598,0.4554,6
-0.2738,0.2175,0.17,6
-0.5232,0.3929,0.0285,6
-0.5594,0.3034,0.0233,6
-0.5456,0.1917,0.0718,6
-0.593,0.1592,0.2589,6
-0.5729,0.2265,0.3515,6
0.1218,0.3167,0.2104,6
0.0969,0.3357,0.0874,6
0.0969,0.3357,0.0874,6
0.1213,0.3541,0.1188,6
0.1124,0.3221,0.0605,6
-0.1734,0.0059,-0.0099,6
-0.3014,-0.1104,-0.1199,6
-0.3375,-0.165,-0.2109,6
-0.1182,-0.2622,-0.4322,6
-0.0022,-0.2865,-0.4266,6
0.3832,-0.2994,-0.0948,6
0.4364,-0.1875,0.0126,6
0.3744,-0.1489,0.0606,6
0.2981,0.0135,-0.0552,6
0.4151,0.0621,-0.3401,6
0.1273,0.0881,-0.1514,6
0.084,0.0449,0.0573,6
0.084,0.0449,0.0573,6
0.0706,-0.0283,0.1062,6
0.0236,-0.0913,0.1117,6
-0.1435,-0.1257,0.0897,6
-0.1305,-0.0876,0.0504,6
0.002,0.0262,0.0463,6
0.0058,-0.0037,-0.0189,6
-0.1361,0.0157,0.1236,6
-0.1361,0.0157,0.1236,6
-0.115,0.0354,0.141,6
-0.0578,0.0142,0.0585,6
-0.1622,0.0243,0.0647,6
-0.0012,0.0238,0.0418,6
0.1399,0.0284,-0.0399,6
0.0832,-0.0035,-0.0717,6
0.0041,-0.0057,0.0289,6
-0.0019,0.0305,0.1014,6
0.0456,0.0608,-0.0152,6
-0.0381,0.0441,-0.0092,6
-0.0489,-0.018,0.017,6
-0.0175,-0.0402,-0.0267,6
0.0386,-0.0206,-0.0663,6
0.1678,-0.0124,-0.0559,6
0.018,-0.0202,0.0342,6
-0.0406,-0.0653,0.0575,6
-0.024,-0.0572,0.0443,6
0.0594,-0.0462,-0.0031,6
0.1152,-0.0355,-0.0783,6
0.1026,-0.0525,-0.0396,6
0.0881,-0.0912,0.0221,6
0.032,-0.0339,0.1116,6
0.1365,-0.0286,0.0088,6
0.0352,0.0424,-0.0202,6
-0.0641,0.0692,-0.0228,6
-0.1349,0.0461,0.003,6
-0.1568,0.0389,0.0008,6
-0.1102,0.0031,0.0677,6
-0.0544,-0.011,0.0603,6
-0.022,-0.0128,-0.011,6
0.0542,-0.0233,-0.0084,6
0.0097,-0.019,-0.0045,6
-0.06,-0.0558,0.0091,6
0.0513,-0.0137,-0.0548,6
0.1901,-0.017,-0.0428,6
0.1183,0.0147,0.0168,6
0.0933,0.0396,0.0805,6
-0.1704,0.0279,0.0495,6
0.0009,-0.0462,-0.1207,6
0.0128,-0.0476,-0.0643,6
-0.0211,-0.0209,0.0569,6
0.0743,-0.024,0.0794,6
0.1178,-0.0325,-0.0333,6
0.0203,0.0213,-0.0142,6
0.0442,0.0226,0.0404,6
0.1217,0.0256,0.0302,6
-0.0002,0.0091,0.0755,6
-0.0422,-0.0096,0.031,6
-0.0595,-0.0339,0.0366,6
0.0279,-0.0408,-0.0109,6
0.0312,-0.0548,-0.03,6
0.0593,-0.0086,-0.0156,6
0.0055,-0.0069,0.0839,6
-0.0054,-0.0158,-0.0272,6
-0.0395,-0.0043,0.0127,6
-0.0257,0.0008,0.0424,6
0.0278,0.0121,0.0184,6
0.0202,0.0227,0.0132,6
0.0453,-0.0096,-0.0567,6
0.0362,0.0103,0.0414,6
-0.0379,-0.0047,0.0605,6
-0.0048,-0.0357,0.0289,6
-0.0205,-0.0354,0.0543,6
0.0371,-0.0426,-0.067,6
0.0869,-0.0139,-0.0873,6
0.1483,-0.0159,-0.0287,6
-0.0513,-0.0102,0.0938,6
-0.0494,-0.0083,0.0504,6
0.0686,-0.0162,-0.0121,6
-0.0924,0.0104,0.069,6
-0.0636,-0.0107,0.0471,6
0.0617,-0.088,-0.0311,6
0.0974,-0.0622,-0.0813,6
0.0066,0.0481,0.0772,6
-0.0272,0.0369,0.1055,6
0.0696,-0.0015,-0.0595,6
0.0425,-0.0139,-0.0533,6
0.1483,-0.0159,-0.0287,6
-0.0513,-0.0102,0.0938,6
